category,sec,week,latitude,longitude,lux,accelx,accely,accelz,gyroX,gyroY,gyroZ,decibel,peak,mag1,mag2,mag3,mag4,mag5,mag6,mag7,mag8,mag9,mag0,bssidcnt,rssisum,idx1,idx2,idx3,idx4,idx5,idx6,idx7,idx8,idx9,idx0,rssi1,rssi2,rssi3,rssi4,rssi5,rssi6,rssi7,rssi8,rssi9,rssi0,inclass
study,8635,7,35.57355915,129.18803466,286.0,0.047285482,0.30286652,9.809045,0.0047936863,-0.0037284228,0.0021305273,30.14736234567374,112.0,9137.394897572029,6506.930685166639,2148.610659444508,503.976688389868,280.72223181997884,264.57814832886567,202.1008529917356,181.07413115994024,271.5572842392489,368.28962879281227,61,-575,0,1,2,3,4,5,6,7,8,9,-54,-54,-57,-58,-58,-58,-59,-59,-59,-59,0
study,8640,7,35.57355915,129.18803466,306.0,0.045489833,0.31483752,9.820416,0.0047936863,-0.003462107,0.002530001,28.744703309120247,103.0,5189.624791046782,3348.368528319531,1455.405195691194,515.7256022915776,306.032619355512,170.5892438523815,151.7631788628231,148.77926996519406,136.8164240145463,147.65533594720816,64,-548,1,10,11,3,2,0,4,6,12,13,-53,-53,-54,-55,-55,-55,-55,-55,-56,-57,0
study,8645,7,35.57359241,129.18797382,306.0,0.046088383,0.31064767,9.81503,0.0047936863,-0.003462107,0.005592634,31.12734292697474,122.0,7108.230425461795,4881.614248052192,1199.1209096496675,462.1896097142339,282.6863611345132,210.19494199602917,170.84343733968072,143.38290809789905,145.38963493596276,209.1573534258032,65,-551,0,1,10,3,2,4,6,11,14,13,-54,-54,-54,-55,-55,-55,-55,-55,-57,-57,0
study,8650,7,35.57361955,129.18793405,316.0,0.046088383,0.31064767,9.815628,0.0042610546,-0.003462107,0.002796317,27.946862008978908,85.0,2085.446470790573,3195.312147206775,1081.371687381522,532.2679466894037,207.09367615116685,212.7672236462915,204.8169727232363,142.32424902004615,145.70996423227894,208.11585553080369,54,-560,0,11,1,10,3,2,4,6,5,7,-53,-54,-55,-55,-56,-56,-56,-57,-59,-59,0
study,8655,7,35.57361955,129.18793405,322.0,0.048482586,0.31423897,9.820416,0.0043942127,-0.0035952649,0.0039947387,28.978882312247173,87.0,7658.904888658127,3099.5450761636985,1083.0982380622163,549.1980302982662,300.506078759582,237.3953672784384,192.70941330128585,144.42779441307167,151.7889821010862,151.83917318011729,54,-560,0,11,1,10,3,2,4,6,5,7,-53,-54,-55,-55,-56,-56,-56,-57,-59,-59,0
study,8660,7,35.57361955,129.18793405,328.0,0.048482586,0.30107087,9.824607,0.0042610546,-0.0035952649,0.0051931604,30.46621003566653,103.0,8971.198153997964,2156.750348155408,1525.4953820572746,521.276776182747,236.8890099460116,214.37585070958093,196.35754568438844,146.16818326748074,182.41922980555407,208.4493297118974,54,-560,0,11,1,10,3,2,4,6,5,7,-53,-54,-55,-55,-56,-56,-56,-57,-59,-59,0
study,8665,7,35.57361955,129.18793405,329.0,0.05327099,0.29029694,9.820416,0.0051931604,-0.0030626329,-0.0011984216,27.47657991836642,81.0,9203.9846383678,3961.288456580255,1440.2247271861524,847.8381681630884,362.8302853405691,314.1107487034526,220.2409080446652,186.840259362852,179.7384100706397,259.9071148157697,54,-560,0,11,1,10,3,2,4,6,5,7,-53,-54,-55,-55,-56,-56,-56,-57,-59,-59,0
study,8670,7,35.57361955,129.18793405,320.0,0.048482586,0.31004912,9.8198185,0.0047936863,-0.0030626329,0.0035952649,30.254754784213503,87.0,12029.20605154124,2840.7642813578123,1972.1164442149084,538.3378461170055,333.3436086495741,235.8736150046351,192.91472904649467,186.4000303476963,154.03713790045273,134.96431350329277,54,-560,0,11,1,10,3,2,4,6,5,7,-53,-54,-55,-55,-56,-56,-56,-57,-59,-59,0
study,8675,7,35.57361955,129.18793405,331.0,0.050876785,0.29927522,9.822811,0.0037284228,-0.002929475,0.0013315795,28.627579458982478,76.0,9816.01617308854,5067.347208304494,1144.619127403471,943.8189746974372,501.1729022848656,352.64875136487024,300.005104964233,213.4307037692105,201.22414960889705,188.00455876386243,54,-560,0,11,1,10,3,2,4,6,5,7,-53,-54,-55,-55,-56,-56,-56,-57,-59,-59,0
study,8680,7,35.57361955,129.18793405,333.0,0.053869538,0.29987377,9.820416,0.0042610546,-0.003462107,0.0042610546,31.037607824852884,124.0,6928.562778344008,2174.485161322217,3156.393279667001,1520.3393663464058,719.1759131675981,843.3932281505291,642.4486780043356,462.1440869326382,191.21020357165236,363.0152320224758,54,-560,0,11,1,10,3,2,4,6,5,7,-53,-54,-55,-55,-56,-56,-56,-57,-59,-59,0
study,8685,7,35.57361955,129.18793405,326.0,0.047285482,0.30047232,9.809045,0.0061252657,-0.002796317,-0.00013315796,29.86643668670932,234.0,5685.387432462678,3361.6030724336465,1257.48287357902,617.1184333468245,301.2748478007717,255.01350646506955,332.1962573069817,255.69240922019625,395.8543776075904,846.188666799411,54,-560,0,11,1,10,3,2,4,6,5,7,-53,-54,-55,-55,-56,-56,-56,-57,-59,-59,0
study,8690,7,35.57361955,129.18793405,329.0,0.054468088,0.28550854,9.812635,0.0046605286,-0.002929475,-0.0022636852,29.640185271518064,89.0,8713.130689384338,4899.15278139441,1748.285012721979,698.924645123954,402.4699974952978,268.548108720599,203.69933711142292,178.25181495598952,151.51380258904257,196.4419695671696,54,-560,0,11,1,10,3,2,4,6,5,7,-53,-54,-55,-55,-56,-56,-56,-57,-59,-59,0
study,8695,7,35.57361955,129.18793405,323.0,0.044891283,0.31124622,9.820416,0.005326318,-0.0037284228,0.0014647375,30.452835675339912,115.0,10475.171042487433,4311.700113197561,1650.1395288283702,541.2720513320336,443.6866271507902,185.3077119306912,259.7490465332916,218.76560815227924,291.7101894273083,395.9386759252784,54,-560,0,11,1,10,3,2,4,6,5,7,-53,-54,-55,-55,-56,-56,-56,-57,-59,-59,0
study,8700,7,35.57361955,129.18793405,319.0,0.047884032,0.31663316,9.818023,0.005060002,-0.0038615807,0.0041278964,28.55751980851572,76.0,8807.208019257081,2876.815297513714,1482.2273144318262,610.9472682244976,309.9501171655077,270.6082713355978,223.6253247484751,166.8491664240731,145.68474130601928,195.87236137843516,54,-560,0,11,1,10,3,2,4,6,5,7,-53,-54,-55,-55,-56,-56,-56,-57,-59,-59,0
study,8705,7,35.57361955,129.18793405,316.0,0.050876785,0.31543607,9.8198185,0.0045273704,-0.0038615807,0.0047936863,28.267048219846277,75.0,6898.608275194303,2197.4933311213617,1624.1173147897505,553.0435475627082,394.7080997330863,308.2834224541196,221.3282221227054,236.47273410517357,269.32512370597044,454.0229824616792,54,-560,0,11,1,10,3,2,4,6,5,7,-53,-54,-55,-55,-56,-56,-56,-57,-59,-59,0
study,8710,7,35.57361955,129.18793405,314.0,0.050278235,0.31543607,9.818622,0.0046605286,-0.002929475,-0.003195791,28.79693663934229,94.0,7472.992459677264,2873.227915328033,1824.5040399394532,853.5168724242067,438.0580721667466,374.1107206256777,235.8497077263996,174.2597198785139,181.9317954280033,168.35023446329168,54,-560,0,11,1,10,3,2,4,6,5,7,-53,-54,-55,-55,-56,-56,-56,-57,-59,-59,0
study,8715,7,35.57361955,129.18793405,314.0,0.045489833,0.31783026,9.81922,0.0051931604,-0.0035952649,0.0043942127,29.69436584577213,106.0,9372.842560290894,3676.801658592936,2628.8333298660527,770.7299834786111,637.9119949598917,384.4113291850729,272.40909788546213,264.049662594024,278.8213838250347,270.8380703635958,54,-560,0,11,1,10,3,2,4,6,5,7,-53,-54,-55,-55,-56,-56,-56,-57,-59,-59,0
study,8720,7,35.57361955,129.18793405,296.0,0.047884032,0.3333926,9.8198185,0.0049268445,-0.0037284228,-0.0014647375,30.878084439498068,96.0,14379.968180482085,3708.414489019976,1107.750417663779,814.7914986262172,460.5299722777395,285.0279231632954,235.6119639762049,187.4496211853485,155.0645562061708,151.43319289290292,54,-560,0,11,1,10,3,2,4,6,5,7,-53,-54,-55,-55,-56,-56,-56,-57,-59,-59,0
study,8725,7,35.57361955,129.18793405,295.0,0.049081136,0.33279404,9.818023,0.0043942127,-0.0030626329,0.0005326318,28.228331249749765,77.0,5500.948015752603,4938.2216538872,1319.7514478915723,361.5080836107201,212.50567278568948,356.0278382073955,273.30720567748097,228.67669702815428,304.40011449922736,608.6562311187921,54,-560,0,11,1,10,3,2,4,6,5,7,-53,-54,-55,-55,-56,-56,-56,-57,-59,-59,0
study,8730,7,35.57361955,129.18793405,295.0,0.044292733,0.33279404,9.8198185,0.0045273704,-0.003462107,0.0017310535,28.69659881840593,86.0,7412.122202557981,3742.2375149000895,1939.832411578996,722.7575061646735,403.90209303977286,358.7058191586224,283.88899131081286,214.0336419120248,188.0827778650253,218.1097087833179,54,-560,0,11,1,10,3,2,4,6,5,7,-53,-54,-55,-55,-56,-56,-56,-57,-59,-59,0
study,8736,7,35.57361955,129.18793405,295.0,0.049081136,0.3321955,9.817424,0.0046605286,-0.0030626329,-0.0002663159,29.320869903684432,96.0,7242.602221695297,4364.431069825988,1509.658857331987,671.7339148062603,385.0652987754302,301.3693486445909,208.13436242310289,196.27472315283975,245.1125234407293,393.8480194125346,54,-560,0,11,1,10,3,2,4,6,5,7,-53,-54,-55,-55,-56,-56,-56,-57,-59,-59,0
study,8741,7,35.57361955,129.18793405,295.0,0.048482586,0.3298013,9.813833,0.0046605286,-0.002796317,0.0054594763,28.825019856261747,88.0,8834.339290457896,4446.048489178378,1482.752937974822,581.106442339053,380.4819191831927,247.6826045053601,193.54427141567544,194.0071658579265,231.11380696670955,325.93722401729025,54,-560,0,11,1,10,3,2,4,6,5,7,-53,-54,-55,-55,-56,-56,-56,-57,-59,-59,0
study,8746,7,35.57361955,129.18793405,295.0,0.044891283,0.33159694,9.818023,0.0049268445,-0.0030626329,-0.0011984216,29.065636523044507,89.0,8041.614904025835,4104.809276634668,1105.208967873398,421.2440447596904,205.73686875907745,241.45589822569303,203.2093460281563,135.67892468490413,160.47433741088227,187.76758123790825,54,-560,0,11,1,10,3,2,4,6,5,7,-53,-54,-55,-55,-56,-56,-56,-57,-59,-59,0
study,8751,7,35.57361955,129.18793405,294.0,0.048482586,0.33039984,9.820416,0.0049268445,-0.003195791,0.0013315795,26.86466190748496,76.0,1390.0697958634923,1231.421238712214,1291.843335387009,597.2421693867601,467.4597625375812,438.5466739673883,236.8600404756979,330.37549614905924,231.82105650393584,413.9695171807216,54,-560,0,11,1,10,3,2,4,6,5,7,-53,-54,-55,-55,-56,-56,-56,-57,-59,-59,0
study,8756,7,35.57361955,129.18793405,294.0,0.049081136,0.32621,9.820416,0.0047936863,-0.003462107,-0.0014647375,31.963719044417505,124.0,6996.597464203382,3885.939165495055,3961.212170062378,725.6538862859554,581.0752892314516,375.57925568910457,335.6970466576693,305.90704484502953,411.73451577112894,686.4865778530993,57,-568,2,4,6,1,0,10,5,7,3,8,-56,-56,-56,-56,-57,-57,-57,-57,-58,-58,0
study,8761,7,35.57361955,129.18793405,294.0,0.049679685,0.33279404,9.8198185,0.005992108,-0.0035952649,-0.005725792,30.133436329043526,91.0,4068.5510971485246,4365.645917316257,2388.567076869255,1204.0042374290383,547.1693186254261,346.6505578349332,303.7559337861347,273.9789763249419,267.1021837762139,382.0012657651058,55,-566,0,3,2,4,6,1,11,5,10,7,-55,-56,-56,-56,-56,-57,-57,-57,-58,-58,0
study,8766,7,35.57361955,129.18793405,330.0,0.050876785,0.30825347,9.821015,0.0039947387,-0.0039947387,0.005992108,29.408924955101703,100.0,5022.548727109258,3629.960661601354,3041.440117371278,712.8263046082369,724.5639863227531,537.1788355534809,715.8658354576274,390.9719490712252,254.7848326037247,421.4358745558194,55,-559,0,1,11,10,2,3,4,6,7,8,-54,-54,-55,-55,-56,-57,-57,-57,-57,-57,0
study,8771,7,35.57361955,129.18793405,307.0,0.05207389,0.31244332,9.820416,0.00585895,-0.0035952649,-0.0019973693,28.298384128384267,76.0,5687.032965098368,3015.785658288541,1471.24864822036,545.4946413196312,273.5920767995845,228.8671586881691,160.43255892818496,142.76434428897466,155.07136395728674,244.1686028683849,54,-551,0,11,10,1,3,2,4,6,5,7,-53,-53,-53,-54,-55,-55,-56,-57,-57,-58,0
study,8776,7,35.57361955,129.18793405,301.0,0.050278235,0.31004912,9.820416,0.0054594763,-0.0035952649,-0.0022636852,30.61899505880932,99.0,11191.068378569576,2156.734384505406,1029.214455564726,482.82593123618585,227.8414025061685,166.17137596655778,164.8784167913534,140.96515266244572,150.72708257104242,251.7881858747701,54,-551,0,11,10,1,3,2,4,6,5,7,-53,-53,-53,-54,-55,-55,-56,-57,-57,-58,0
study,8781,7,35.57361955,129.18793405,310.0,0.050876785,0.31184477,9.81922,0.0047936863,-0.0035952649,0.0023968432,30.23413691299188,116.0,7563.60307983872,2296.7508903875,1461.0262374974254,300.5178987745601,217.33592930647924,240.0387149900272,169.92357402896857,150.6916322061605,164.53935290623775,369.8250106740838,54,-551,0,11,10,1,3,2,4,6,5,7,-53,-53,-53,-54,-55,-55,-56,-57,-57,-58,0
study,8786,7,35.57361955,129.18793405,305.0,0.05267244,0.31244332,9.824008,0.0047936863,-0.0038615807,0.003462107,28.193990510779543,81.0,5960.923290459824,2664.8466550095577,1168.1683206551554,474.8949882526669,224.37098734952508,263.4242878133837,248.52348535498305,356.5948777662383,209.3337220216413,249.10776495140175,54,-551,0,11,10,1,3,2,4,6,5,7,-53,-53,-53,-54,-55,-55,-56,-57,-57,-58,0
study,8791,7,35.57361955,129.18793405,306.0,0.053869538,0.30705637,9.816826,0.0049268445,-0.0035952649,0.0037284228,27.220168182377616,87.0,8420.396284918721,4003.563491077193,935.2412091206154,658.6596095187263,297.4301004480673,219.90767337710687,210.77531662125256,147.0478638558309,144.92904027480225,159.0700149239964,54,-551,0,11,10,1,3,2,4,6,5,7,-53,-53,-53,-54,-55,-55,-56,-57,-57,-58,0
study,8796,7,35.57361955,129.18793405,307.0,0.048482586,0.31064767,9.821015,0.0047936863,-0.0037284228,0.0013315795,27.60247837183449,78.0,7363.628251798762,5429.474481164541,1709.009536378441,743.8218770439431,591.6993127562693,355.2543664531511,271.40321170772216,232.63097783133964,183.7382614632947,181.32434429622043,54,-551,0,11,10,1,3,2,4,6,5,7,-53,-53,-53,-54,-55,-55,-56,-57,-57,-58,0
study,8801,7,35.57361955,129.18793405,307.0,0.050876785,0.31064767,9.821015,0.005060002,-0.003462107,-0.0041278964,27.48640686009143,73.0,6300.737467321029,2735.513152851569,1548.705009654808,581.2038065260333,374.2466424939037,185.0712068933567,231.025111725885,152.1103986747065,164.41669514299673,222.4785510460228,54,-551,0,11,10,1,3,2,4,6,5,7,-53,-53,-53,-54,-55,-55,-56,-57,-57,-58,0
study,8806,7,35.57361955,129.18793405,321.0,0.055066638,0.29867667,9.820416,0.0038615807,-0.003462107,0.002663159,28.491900273797377,78.0,10838.509795134172,2471.195369509864,1132.1970197601413,608.3943051167842,381.77678732267873,243.423170191531,202.1303567817664,175.5840917290207,165.2595832710007,151.67209042478612,54,-551,0,11,10,1,3,2,4,6,5,7,-53,-53,-53,-54,-55,-55,-56,-57,-57,-58,0
study,8811,7,35.57364703,129.18788026,316.0,0.05566519,0.30885202,9.821015,0.0045273704,-0.0035952649,0.0039947387,30.315896830631655,98.0,8946.373909261996,4648.841666748341,1189.1381655668602,754.771807930555,358.8230557881734,217.3793130706058,200.81451546106325,190.5877490633493,166.0241980730756,165.72106393267012,54,-551,0,11,10,1,3,2,4,6,5,7,-53,-53,-53,-54,-55,-55,-56,-57,-57,-58,0
study,8816,7,35.57368707,129.18779413,310.0,0.05327099,0.31064767,9.81922,0.0049268445,-0.0037284228,-0.003195791,28.828033277556862,92.0,6340.025954219277,2864.3472391106543,1526.5587449406612,614.850248991893,349.5995097751854,252.85774638577,182.56315185380456,163.77486515441197,135.36539735248562,176.42102583976367,54,-551,0,11,10,1,3,2,4,6,5,7,-53,-53,-53,-54,-55,-55,-56,-57,-57,-58,0
study,8821,7,35.57368707,129.18779413,303.0,0.053869538,0.31004912,9.818023,0.005060002,-0.003462107,-0.00066578976,28.408314931414687,97.0,6642.650009832487,4430.690233834066,1241.8952582435804,427.0553098931342,336.6603149374028,264.593971444408,209.02761684218,154.6594064728415,135.52851241133806,207.44797271211507,54,-551,0,11,10,1,3,2,4,6,5,7,-53,-53,-53,-54,-55,-55,-56,-57,-57,-58,0
study,8826,7,35.57370624,129.18774923,298.0,0.05207389,0.29628247,9.8198185,0.0049268445,-0.003195791,-0.0002663159,28.364729987802164,80.0,5799.2077326009385,2479.2106347530616,963.0083491008322,670.5193762046315,332.17339984797366,206.71803749720524,256.9967290341861,201.04853101611303,162.5032950455684,181.6940655031372,54,-551,0,11,10,1,3,2,4,6,5,7,-53,-53,-53,-54,-55,-55,-56,-57,-57,-58,0
study,8831,7,35.5736703,129.1877654,296.0,0.053869538,0.31423897,9.822212,0.0051931604,-0.003328949,0.0042610546,27.581706938682448,68.0,8639.188598333634,3158.5072681524152,1109.8019024161297,462.2254881286114,278.16080613563514,178.7257031453682,154.14217220279895,128.25842555306173,124.49906800122366,144.86340695616417,54,-551,0,11,10,1,3,2,4,6,5,7,-53,-53,-53,-54,-55,-55,-56,-57,-57,-58,0
study,8836,7,35.57362437,129.18774134,296.0,0.050876785,0.31663316,9.821015,0.005060002,-0.0035952649,0.0009321057,28.87367185278661,77.0,6591.88593662208,2764.8183605147765,1780.3526431089713,383.4431204261713,297.0486003534143,180.78260778519368,172.10735414685516,125.02529246927725,152.73285170914485,151.68596194033668,54,-551,0,11,10,1,3,2,4,6,5,7,-53,-53,-53,-54,-55,-55,-56,-57,-57,-58,0
study,8841,7,35.57362437,129.18774134,308.0,0.050876785,0.30945057,9.820416,0.0047936863,-0.0035952649,0.002530001,27.48419281593328,79.0,7316.911626706842,2217.11435095332,1351.7053402254053,443.3303442975465,236.1690296184573,158.10941376643447,164.50189747168127,134.57963469313472,126.88550077730912,145.92058898279268,54,-551,0,11,10,1,3,2,4,6,5,7,-53,-53,-53,-54,-55,-55,-56,-57,-57,-58,0
study,8846,7,35.57363718,129.18777337,311.0,0.050876785,0.31304187,9.821015,0.0049268445,-0.003462107,-0.005060002,28.669872869301955,112.0,6891.585201739269,4667.182183432827,1216.5839694069298,377.3160105759805,213.34145655058663,180.65121922164028,138.21594213163473,144.3022064943381,336.0089798192636,369.52847778818574,54,-551,0,11,10,1,3,2,4,6,5,7,-53,-53,-53,-54,-55,-55,-56,-57,-57,-58,0
study,8851,7,35.57363718,129.18777337,321.0,0.050876785,0.31244332,9.812037,0.0041278964,-0.003195791,-0.0035952649,27.6283089636346,68.0,3160.893590328672,2766.9311547493867,867.7177445185747,449.8946265276685,180.60551941848755,175.7461509420161,149.22466489326243,139.99196949892047,131.856355712435,164.27355037790966,54,-551,0,11,10,1,3,2,4,6,5,7,-53,-53,-53,-54,-55,-55,-56,-57,-57,-58,0
study,8856,7,35.57363718,129.18777337,311.0,0.050876785,0.31663316,9.821015,0.005992108,-0.003462107,-0.0030626329,30.521500808615315,167.0,7872.798422269279,4090.812159124745,1542.9861992123435,409.684772467422,228.9587871256056,213.57514704001463,245.72521114200893,160.60551414706134,356.26156841295324,442.9580091929664,54,-551,0,11,10,1,3,2,4,6,5,7,-53,-53,-53,-54,-55,-55,-56,-57,-57,-58,0
study,8861,7,35.57363718,129.18777337,322.0,0.05267244,0.30166942,9.82341,0.0030626329,-0.0037284228,0.0014647375,30.9161357804155,202.0,13478.249590029309,2690.875314795928,1623.7460391128204,435.4114287226944,317.6666303173207,287.4526244166664,268.0259991389636,349.9787735676026,473.4291847198149,745.4078642260017,54,-551,0,11,10,1,3,2,4,6,5,7,-53,-53,-53,-54,-55,-55,-56,-57,-57,-58,0
study,8866,7,35.57363718,129.18777337,326.0,0.054468088,0.30406362,9.820416,0.0061252657,-0.0037284228,-0.002530001,28.37526612982717,115.0,6311.505059305029,3333.144621054092,1057.6983272965836,600.5677273379764,335.7065155320108,290.5968364080408,222.13034970416263,166.31898974283067,136.38554228391908,157.31513779553845,54,-551,0,11,10,1,3,2,4,6,5,7,-53,-53,-53,-54,-55,-55,-56,-57,-57,-58,0
study,8871,7,35.57362309,129.18780472,305.0,0.050876785,0.30885202,9.817424,0.005060002,-0.003328949,0.0046605286,28.58966304058577,105.0,3943.505335374195,3430.804694765393,1383.0248092020088,403.2229287564371,273.596920606573,181.94559458961703,187.2726307946663,120.33392792199784,149.37030606979795,185.81314048240955,54,-551,0,11,10,1,3,2,4,6,5,7,-53,-53,-53,-54,-55,-55,-56,-57,-57,-58,0
study,8877,7,35.57362309,129.18780472,308.0,0.048482586,0.31244332,9.818023,0.005060002,-0.003462107,0.0041278964,28.25745151474694,82.0,10740.530816731076,3120.1679783894588,1852.9941785102865,624.2329159639087,324.4187401947659,255.90282198762088,214.17723765707228,167.80906703687495,156.28732212472573,179.85889322824195,60,-579,3,2,4,6,5,7,9,14,15,16,-57,-57,-57,-57,-58,-58,-58,-59,-59,-59,0
study,8882,7,35.57360475,129.18783155,300.0,0.051475335,0.31184477,9.813833,0.005592634,-0.0037284228,-0.0013315795,31.26288807729828,99.0,9739.37159758458,3732.4114643280177,1423.6862793760354,500.3639653753745,365.1507067913528,221.69844571918284,271.11106913225973,160.5228506971291,206.6459528546256,276.50451841772355,59,-545,1,0,11,10,3,2,4,6,5,7,-52,-53,-53,-53,-55,-55,-55,-55,-56,-58,0
study,8887,7,35.57360475,129.18783155,302.0,0.050876785,0.31543607,9.821015,0.0046605286,-0.003462107,0.0019973693,28.42728135906483,73.0,3734.5867812664455,3203.5166957287647,1149.8234040891066,390.7788616236624,251.4333085045647,254.89744827703163,176.63459754945478,140.57094496128548,147.49041069310852,213.01851427080624,62,-547,0,1,10,3,2,4,6,11,7,9,-52,-53,-53,-54,-55,-55,-55,-56,-57,-57,0
study,8892,7,35.57360475,129.18783155,305.0,0.048482586,0.31064767,9.822811,0.005725792,-0.0043942127,-0.0047936863,37.04377171596734,1110.0,4046.66264102028,1437.8847807698903,1354.5247512941207,438.3990498986856,297.3232061522445,235.59761357212423,232.8955489802974,333.33019901077813,332.9975870843533,1081.4209965283767,58,-542,0,11,10,1,2,3,6,4,5,14,-51,-51,-51,-52,-54,-55,-55,-56,-58,-59,0
study,8897,7,35.57360475,129.18783155,329.0,0.049679685,0.30107087,9.8276,0.0051931604,-0.0042610546,0.002530001,27.22280808263931,126.0,8070.043218222259,2970.422176720055,1080.3458520610864,534.814562656527,223.127521058749,182.60753464005305,165.78582670962354,163.84599529775852,178.07873073606603,201.56140211832704,58,-542,0,11,10,1,2,3,6,4,5,14,-51,-51,-51,-52,-54,-55,-55,-56,-58,-59,0
study,8902,7,35.57360475,129.18783155,321.0,0.050278235,0.30585927,9.816826,0.0046605286,-0.0039947387,0.0023968432,27.302634771477127,71.0,4864.9415775014295,2211.0764677561097,1273.1029889891254,499.6539878135757,320.53896886897945,246.6561609806911,160.38134129066833,134.5056033043611,142.35356273156708,150.1221364503716,58,-542,0,11,10,1,2,3,6,4,5,14,-51,-51,-51,-52,-54,-55,-55,-56,-58,-59,0
study,8907,7,35.57360475,129.18783155,323.0,0.050876785,0.31004912,9.821015,0.005060002,-0.0037284228,0.002796317,26.75421825704491,64.0,5149.994961517904,2540.8948539228268,1662.356707867585,555.9366858762638,334.79205620877354,243.38070528774395,220.62138211553116,180.15147104621437,170.39017013940435,161.90228211756545,58,-542,0,11,10,1,2,3,6,4,5,14,-51,-51,-51,-52,-54,-55,-55,-56,-58,-59,0
study,8912,7,35.57360475,129.18783155,315.0,0.050876785,0.29568392,9.820416,0.0049268445,-0.0035952649,-0.0005326318,35.05622799192425,346.0,4741.431152226672,5958.614352551773,3694.642075893481,3248.6614241199354,2169.0458880089386,1264.5682303487913,1014.4441080213847,979.1349589730418,1449.5490061345208,2546.78115841599,58,-542,0,11,10,1,2,3,6,4,5,14,-51,-51,-51,-52,-54,-55,-55,-56,-58,-59,0
study,8917,7,35.57360475,129.18783155,317.0,0.046686932,0.29388827,9.821614,0.0047936863,-0.0039947387,-0.002530001,28.844274147312355,82.0,9192.716764576648,2179.213604000295,1179.36497443833,770.9202618508119,359.0004902875444,244.836854437158,228.76096977794452,163.38547160174568,171.70081687341312,177.9684680268021,58,-542,0,11,10,1,2,3,6,4,5,14,-51,-51,-51,-52,-54,-55,-55,-56,-58,-59,0
study,8922,7,35.57358179,129.18787054,305.0,0.050876785,0.31364042,9.820416,0.0042610546,-0.0042610546,0.007989477,28.84946846918445,87.0,4615.179700388606,5162.436210162337,1304.544165872099,530.9280784092566,368.6080973190124,273.96474940539,221.6708798740553,180.5865308646692,139.92449204410562,188.48566872086556,58,-542,0,11,10,1,2,3,6,4,5,14,-51,-51,-51,-52,-54,-55,-55,-56,-58,-59,0
study,8927,7,35.57358179,129.18787054,312.0,0.046088383,0.31244332,9.816227,0.0045273704,-0.003195791,0.0002663159,28.61551745169537,77.0,8604.757472780198,2045.208341951725,1418.5262603451686,581.1645388688529,327.8068727894842,212.11938538656935,183.7736945108805,210.3190144089681,172.96929059351578,204.7485667972482,58,-542,0,11,10,1,2,3,6,4,5,14,-51,-51,-51,-52,-54,-55,-55,-56,-58,-59,0
study,8932,7,35.57358179,129.18787054,313.0,0.05327099,0.29688102,9.818622,0.0051931604,-0.0039947387,0.0047936863,27.919110197255005,69.0,7400.970463079311,2889.1626254036782,1243.7984966723902,594.5802382960467,281.61401668023103,249.0229980801095,134.47891062875985,157.24736226767874,149.19949786165907,190.13926837300264,58,-542,0,11,10,1,2,3,6,4,5,14,-51,-51,-51,-52,-54,-55,-55,-56,-58,-59,0
study,8937,7,35.57353669,129.18783014,324.0,0.05327099,0.29747957,9.818023,0.0045273704,-0.0037284228,0.0039947387,26.67367730497781,71.0,9002.806884123756,3178.528758206143,1439.0051018756378,514.091609630107,294.9906775349939,168.5377583021046,167.39407457507875,137.55549546811125,131.35392648940282,144.5912343136592,58,-542,0,11,10,1,2,3,6,4,5,14,-51,-51,-51,-52,-54,-55,-55,-56,-58,-59,0
study,8942,7,35.57353669,129.18783014,320.0,0.055066638,0.29628247,9.820416,0.0049268445,-0.0037284228,-0.00039947388,27.755840383701216,82.0,4125.644305679616,2674.112994031166,1395.3729234722057,384.06506371204046,359.4998822820855,169.06222892985582,137.9633809927407,142.60343721712226,115.17403318787244,161.04852827699915,58,-542,0,11,10,1,2,3,6,4,5,14,-51,-51,-51,-52,-54,-55,-55,-56,-58,-59,0
study,8947,7,35.57349043,129.18780935,314.0,0.050876785,0.30705637,9.822811,0.005060002,-0.0038615807,0.002929475,27.894506646428884,73.0,7116.034714351685,4644.579017914585,913.8006353863684,240.51470666733863,243.2937970564981,159.37124600580265,173.3285211018767,135.55133978463246,153.7784158301327,155.3388679019637,58,-542,0,11,10,1,2,3,6,4,5,14,-51,-51,-51,-52,-54,-55,-55,-56,-58,-59,0
study,8952,7,35.57351916,129.18783896,317.0,0.05327099,0.30466217,9.81084,0.0021305273,-0.0039947387,0.002796317,29.695425305274203,312.0,2890.650078531722,2554.4342447825243,1160.3475481429264,429.4802189753562,268.4503332231888,246.00628392974275,219.39350344214344,146.77905363298518,164.85488013497255,191.98334501372807,58,-542,0,11,10,1,2,3,6,4,5,14,-51,-51,-51,-52,-54,-55,-55,-56,-58,-59,0
study,8957,7,35.57355558,129.18787111,329.0,0.049679685,0.30765492,9.81922,0.005326318,-0.0039947387,-0.0042610546,35.59438694092929,612.0,8105.281825924973,4828.252165178315,997.8592651389724,514.9143351280397,272.61069883460976,269.03869979128393,314.4711060698677,220.57212133286845,375.46931177828935,1177.6827493377,58,-542,0,11,10,1,2,3,6,4,5,14,-51,-51,-51,-52,-54,-55,-55,-56,-58,-59,0
study,8962,7,35.57355558,129.18787111,332.0,0.05267244,0.29747957,9.820416,0.0043942127,-0.0035952649,0.0045273704,28.680409272180487,86.0,8412.394652646148,5461.988149754344,989.3025802548811,508.4152052848084,354.1210901281756,301.6431516138645,219.6677790494512,157.66255842901424,157.59390839617305,181.57241500724072,58,-542,0,11,10,1,2,3,6,4,5,14,-51,-51,-51,-52,-54,-55,-55,-56,-58,-59,0
study,8967,7,35.57355558,129.18787111,321.0,0.050876785,0.29269117,9.820416,0.005326318,-0.003195791,0.00039947388,28.640655476688025,105.0,6602.137108258912,2307.908974981988,1718.781361370004,434.9914471377879,263.84137244446816,210.8871066610887,170.63557221031564,134.30718020807612,142.5122973554002,155.2638942450207,58,-542,0,11,10,1,2,3,6,4,5,14,-51,-51,-51,-52,-54,-55,-55,-56,-58,-59,0
study,8972,7,35.57358465,129.18783822,319.0,0.05327099,0.29209262,9.824008,0.0049268445,-0.003195791,0.0015978955,28.737026164259717,83.0,3066.118072846237,5160.966886136988,738.1640966842833,402.7449537107948,244.12145158332888,178.2710821280477,145.14904527384877,155.16250434195112,148.18373438459372,211.31853084987236,58,-542,0,11,10,1,2,3,6,4,5,14,-51,-51,-51,-52,-54,-55,-55,-56,-58,-59,0
study,8977,7,35.57358465,129.18783822,316.0,0.05207389,0.29508537,9.821614,0.005060002,-0.0038615807,-0.003195791,30.41427824752137,98.0,12324.743871415852,4489.3819883022825,1405.6358599621915,473.5408208299744,479.69401335021945,304.1166064576683,226.07272163533585,184.99295945793844,182.9019562854141,181.7341074494474,58,-542,0,11,10,1,2,3,6,4,5,14,-51,-51,-51,-52,-54,-55,-55,-56,-58,-59,0
study,8982,7,35.57358465,129.18783822,308.0,0.05267244,0.29328972,9.824607,0.0054594763,-0.002929475,-0.0002663159,28.261169409376244,78.0,11036.452012779571,2202.399788351133,1217.381806135744,297.1938908209176,209.23425831494623,189.32079350944815,148.96162481619098,112.65071301303698,128.45825216342834,158.6112408446874,58,-542,0,11,10,1,2,3,6,4,5,14,-51,-51,-51,-52,-54,-55,-55,-56,-58,-59,0
study,8987,7,35.57356558,129.18788348,313.0,0.050876785,0.29867667,9.834184,-0.0005326318,-0.005725792,-0.002530001,27.10728247690673,64.0,6865.506167137877,4408.339687919954,823.7558807445153,477.37861325731984,207.75708650702157,173.6151569866814,161.84866304927726,146.71135051584625,122.37795112243896,139.54732385625758,58,-542,0,11,10,1,2,3,6,4,5,14,-51,-51,-51,-52,-54,-55,-55,-56,-58,-59,0
study,8992,7,35.57356558,129.18788348,317.0,0.05327099,0.29508537,9.81503,0.0049268445,-0.0037284228,0.00039947388,37.63858727410642,1022.0,7016.222197512801,3166.926869555933,1248.837151011022,395.0842053733106,284.7823289291217,215.46321137643363,123.92402474891364,142.15513657419882,130.59386213682427,157.61234312761124,58,-542,0,11,10,1,2,3,6,4,5,14,-51,-51,-51,-52,-54,-55,-55,-56,-58,-59,0
study,8997,7,35.57356558,129.18788348,316.0,0.054468088,0.29568392,9.820416,0.0045273704,-0.002929475,0.0018642114,27.678417805224164,69.0,6532.939713207629,3666.815516939185,623.9919725651822,227.0939299380018,284.762280363432,192.26397885199748,164.01341755186942,144.45470626557167,166.80135413333778,185.58127416206827,57,-556,4,3,2,0,6,11,10,1,5,8,-54,-55,-55,-55,-55,-55,-55,-56,-58,-58,0
study,9002,7,35.57356558,129.18788348,313.0,0.05566519,0.29388827,9.821614,0.0049268445,-0.0041278964,-0.0014647375,27.786056242536898,78.0,5354.965104545158,5388.040973143721,1319.30908397234,489.7425848536221,275.92525091400785,144.54933574271124,194.83268962312832,148.3662661180739,138.47170081112887,147.82086061332947,61,-551,3,6,2,4,11,0,1,10,5,7,-52,-52,-53,-53,-55,-56,-57,-57,-58,-58,0
study,9007,7,35.57356558,129.18788348,313.0,0.05207389,0.29209262,9.818023,0.005326318,-0.003462107,-0.0014647375,35.68304940580643,726.0,9418.671528576826,4897.231288057596,2318.2496665205736,876.3171957551648,618.6511295423306,961.25328844126,1182.352295919717,1861.5426976810863,1863.6990468138947,3202.847951660124,54,-557,3,2,6,4,14,10,5,7,1,11,-53,-53,-53,-54,-57,-57,-57,-57,-58,-58,0
study,9012,7,35.57356558,129.18788348,324.0,0.05207389,0.29328972,9.808446,0.0071905297,-0.003462107,-0.0011984216,26.82176817761425,64.0,5488.853644669566,3201.455825403694,1059.3174573722092,417.0851947137552,333.5792110984088,207.14100388556847,155.8821233707747,147.40009344132207,171.39289278480595,155.87584702262825,59,-575,0,1,5,7,8,9,4,11,10,3,-57,-57,-57,-57,-57,-57,-58,-58,-58,-59,0
study,9018,7,35.57356558,129.18788348,320.0,0.05207389,0.29448682,9.815628,0.005060002,-0.0037284228,0.0,27.54872830053683,64.0,5121.736284596291,3888.173814268499,1765.436041754817,632.2096392058475,405.4829605294869,228.87382393415984,231.3468630316706,185.17834865187464,161.97806654242748,164.52478301626425,59,-575,0,1,5,7,8,9,4,11,10,3,-57,-57,-57,-57,-57,-57,-58,-58,-58,-59,0
study,9023,7,35.57356558,129.18788348,319.0,0.050876785,0.29628247,9.816227,0.0043942127,-0.0041278964,0.0037284228,28.372580730180776,85.0,3260.768605107658,2996.7163072165736,1358.5904522690244,552.6915168251925,262.3837448980713,200.0300954822176,183.1713753166216,165.2228768712209,191.2002979838968,250.48688239567065,59,-575,0,1,5,7,8,9,4,11,10,3,-57,-57,-57,-57,-57,-57,-58,-58,-58,-59,0
study,9028,7,35.57356558,129.18788348,319.0,0.049679685,0.29568392,9.818023,0.0046605286,-0.0038615807,0.0,34.529175920044146,371.0,6565.310984239804,4456.671372691855,2405.334846344059,1030.3887643252378,2276.846738530328,1285.6732712979044,1144.9111934227249,1200.375541902265,1431.7649137511028,1889.7619944763492,59,-575,0,1,5,7,8,9,4,11,10,3,-57,-57,-57,-57,-57,-57,-58,-58,-58,-59,0
study,9033,7,35.57354468,129.18791974,223.0,0.051475335,0.29927522,9.81503,0.00652474,-0.0037284228,0.005992108,32.57498648273858,193.0,12962.536153404531,7229.101572353116,5533.935092415803,1410.6265383002187,1904.4688642866836,675.4542672800532,502.1820101262823,632.5665428272772,498.8330398968024,496.9872931454924,59,-575,0,1,5,7,8,9,4,11,10,3,-57,-57,-57,-57,-57,-57,-58,-58,-58,-59,0
study,9038,7,35.57352494,129.1879477,312.0,0.047285482,0.30166942,9.802461,0.003462107,-0.0045273704,0.002530001,28.58066336775057,116.0,7504.042706909463,2975.96440686348,1356.607464381587,670.7688568204705,299.2781748702857,381.1536470248647,305.7502730388046,439.9380962780459,495.04305475332,633.959271072166,59,-575,0,1,5,7,8,9,4,11,10,3,-57,-57,-57,-57,-57,-57,-58,-58,-58,-59,0
study,9043,7,35.57350291,129.18798658,282.0,0.050876785,0.30107087,9.818622,0.0049268445,-0.003328949,-0.0002663159,29.329063001184505,103.0,6257.225713221154,2934.425156798511,2704.6514371911144,1985.6788177203937,878.448190601438,271.1019325187546,269.59496522749384,237.3986335479157,267.6631798634228,636.3550260081292,59,-575,0,1,5,7,8,9,4,11,10,3,-57,-57,-57,-57,-57,-57,-58,-58,-58,-59,0
study,9048,7,35.57350291,129.18798658,282.0,0.054468088,0.29867667,9.81503,0.0054594763,-0.0038615807,-0.0011984216,27.7115464058372,77.0,4925.665169126669,5061.0742115316,933.7201480637818,368.09854258970313,196.0694392143676,195.68380121882868,170.51680619648124,143.54738097874753,156.12101869567044,223.1980111648232,59,-575,0,1,5,7,8,9,4,11,10,3,-57,-57,-57,-57,-57,-57,-58,-58,-58,-59,0
study,9053,7,35.57349866,129.1880799,216.0,0.050278235,0.30705637,9.81084,0.0049268445,-0.003328949,-0.0035952649,38.13363971763674,447.0,13981.838077527262,13755.286348672042,3439.055499431568,1390.4638279611836,838.0684835971765,385.416903819756,347.2607451909075,658.3858497911463,1677.5029799615509,677.1369707038242,59,-575,0,1,5,7,8,9,4,11,10,3,-57,-57,-57,-57,-57,-57,-58,-58,-58,-59,0
study,9058,7,35.57349866,129.1880799,195.0,0.050876785,0.30466217,9.8198185,0.0051931604,-0.003328949,-0.00079894776,27.636905316513708,75.0,5867.178648758187,3015.7221678973924,1644.3564823638446,852.0944505381071,378.0026520450088,257.31617845784257,206.4699770517622,166.84966382455485,194.24263058282727,215.41547569697863,59,-575,0,1,5,7,8,9,4,11,10,3,-57,-57,-57,-57,-57,-57,-58,-58,-58,-59,0
study,9063,7,35.57347178,129.18806607,317.0,0.05207389,0.30286652,9.818023,0.005326318,-0.003462107,0.0005326318,40.70486532240609,575.0,10863.111866843976,2133.68531460833,2054.431112323333,1023.87023866635,514.3985797782397,770.5904797910249,854.1275278700762,566.8261330472294,1549.9709571192918,3953.781301554709,59,-575,0,1,5,7,8,9,4,11,10,3,-57,-57,-57,-57,-57,-57,-58,-58,-58,-59,0
study,9068,7,35.57347178,129.18806607,269.0,0.05267244,0.29867667,9.816227,0.00585895,-0.003462107,-0.0041278964,28.05749396770391,87.0,5329.34258116135,3603.221639840123,1751.0905055830242,607.6020153249132,338.8692829250221,414.4562763985821,305.84303390219264,273.01496020103644,253.90729545618711,364.5463371605401,59,-575,0,1,5,7,8,9,4,11,10,3,-57,-57,-57,-57,-57,-57,-58,-58,-58,-59,0
study,9073,7,35.57347178,129.18806607,296.0,0.049081136,0.31663316,9.815628,0.005060002,-0.0042610546,0.0030626329,29.33665484392342,95.0,4315.226392747953,2984.19264696094,1408.3415973568144,747.5659549569828,505.3673939961197,230.0631160412535,190.26512502913792,173.83134485980526,222.05220617734128,269.9055772853701,59,-575,0,1,5,7,8,9,4,11,10,3,-57,-57,-57,-57,-57,-57,-58,-58,-58,-59,0
study,9078,7,35.57347178,129.18806607,294.0,0.048482586,0.31603462,9.814431,0.0049268445,-0.0038615807,0.0047936863,29.88614440457914,89.0,10110.458969990585,4032.506342142076,1349.8778724475687,969.7617670471972,524.8466961109453,347.4295876470638,283.4184391774965,172.18745452199806,206.5369623133469,378.04043730477633,59,-575,0,1,5,7,8,9,4,11,10,3,-57,-57,-57,-57,-57,-57,-58,-58,-58,-59,0
study,9083,7,35.57343248,129.18806927,293.0,0.049679685,0.31902736,9.8198185,0.0043942127,-0.0037284228,0.0019973693,26.726016059135304,72.0,7034.562018744077,2789.2095750744243,1481.0518034913148,601.0155555559562,320.65521767422695,182.3329391824689,178.7440778762349,153.62830806859765,155.10194464433604,190.87608467206917,59,-575,0,1,5,7,8,9,4,11,10,3,-57,-57,-57,-57,-57,-57,-58,-58,-58,-59,0
study,9088,7,35.57343248,129.18806927,298.0,0.047884032,0.31543607,9.814431,0.0045273704,-0.0038615807,-0.0013315795,28.41887329858055,82.0,5580.889259326,2718.5242498833964,1317.398847024434,560.1027723986755,407.3974158316512,259.3455834584372,221.9732184034501,176.00401995794354,170.32408749053772,208.68172919868917,59,-575,0,1,5,7,8,9,4,11,10,3,-57,-57,-57,-57,-57,-57,-58,-58,-58,-59,0
study,9093,7,35.57339553,129.18805133,296.0,0.050876785,0.3184288,9.813234,0.0051931604,-0.0042610546,-0.003462107,32.8146158588578,149.0,6143.643078335124,3150.436280101585,2201.067537486235,995.812161976644,683.5698755289004,942.3930719034652,720.6327636781429,577.4834830647676,309.93869114085965,276.2590122730101,59,-575,0,1,5,7,8,9,4,11,10,3,-57,-57,-57,-57,-57,-57,-58,-58,-58,-59,0
study,9098,7,35.57339553,129.18805133,324.0,0.050876785,0.3184288,9.813234,0.0045273704,-0.002929475,0.0038615807,28.743666124980443,80.0,4753.509050306623,2373.3419334452965,1158.1604440490764,518.8291634301368,255.00255482091575,230.6104245782313,235.73759593179184,186.4681584183098,177.3109781341556,333.57803657410784,59,-575,0,1,5,7,8,9,4,11,10,3,-57,-57,-57,-57,-57,-57,-58,-58,-58,-59,0
study,9103,7,35.57339553,129.18805133,302.0,0.048482586,0.29927522,9.818023,0.005326318,-0.003328949,0.0043942127,29.133930795205963,89.0,8849.841068977406,3024.888636632667,1406.977797310224,477.4439309866099,485.6136125967085,341.5761602657226,237.7968600635383,193.37658879898007,164.5373161078199,197.5811531031061,59,-575,0,1,5,7,8,9,4,11,10,3,-57,-57,-57,-57,-57,-57,-58,-58,-58,-59,0
study,9108,7,35.57341263,129.1880253,302.0,0.051475335,0.30346507,9.806051,0.006924214,-0.003328949,0.0005326318,29.083852242832595,80.0,1476.4223138742395,2208.6768049687967,1321.8285689050908,503.505866217343,213.862790354004,247.8199702535389,212.7707446393583,200.12819704303183,260.31158105349874,486.6081454632824,59,-575,0,1,5,7,8,9,4,11,10,3,-57,-57,-57,-57,-57,-57,-58,-58,-58,-59,0
study,9113,7,35.57338016,129.18805901,303.0,0.049679685,0.31064767,9.816227,0.0045273704,-0.0039947387,0.0030626329,27.73807048478125,77.0,4707.877690805459,4695.990345645304,1152.9144576014296,1082.9644776650373,337.8013467715872,265.2347367008476,234.09457018877288,206.46923895691685,149.13067765767622,215.21193616128255,59,-575,0,1,5,7,8,9,4,11,10,3,-57,-57,-57,-57,-57,-57,-58,-58,-58,-59,0
study,9118,7,35.57338016,129.18805901,302.0,0.053869538,0.31304187,9.815628,0.0047936863,-0.0038615807,-0.0002663159,29.952657569657685,115.0,10092.642559206914,3014.664030147976,1649.9012392287982,664.3881412425993,347.53026423732564,250.00685549353588,213.81871439101843,182.53204161700447,185.93814286289503,158.14304286713232,50,-561,0,1,11,10,2,3,4,6,5,7,-54,-54,-54,-54,-56,-57,-58,-58,-58,-58,0
study,9123,7,35.57340082,129.18800179,300.0,0.05267244,0.31304187,9.817424,0.0047936863,-0.003462107,-0.0023968432,28.182152123228622,73.0,10417.519021625549,2888.7935477149126,1192.9491837826463,516.7551517568634,216.53256861184977,193.22271450908764,211.39927306433884,163.8423148099346,132.28094694923902,164.60130704713944,54,-569,1,0,11,10,5,7,8,9,6,17,-54,-55,-55,-55,-58,-58,-58,-58,-59,-59,0
study,9128,7,35.57340082,129.18800179,325.0,0.05805939,0.2885013,9.822212,0.005592634,-0.0030626329,0.0054594763,35.60762125060384,160.0,11664.990424025782,3070.1863337533787,1729.7426040941227,471.2094749390743,301.90799355373844,371.2139567513498,226.79313065842305,200.07707429892864,153.9731164540861,368.9265904290134,60,-564,0,1,11,10,5,3,2,6,7,8,-54,-54,-54,-55,-57,-58,-58,-58,-58,-58,0
study,9133,7,35.57343027,129.18799695,326.0,0.05566519,0.2873042,9.81084,0.0046605286,-0.0037284228,0.0070573715,35.90546068588176,283.0,7293.918660980883,6158.774983612454,5036.648552191634,3063.7601285223072,1546.1192922098935,1984.060969722805,1972.418795088509,1541.101881849819,1473.840774554402,2545.684939539762,60,-560,2,4,6,3,0,1,11,10,5,14,-55,-55,-55,-56,-56,-56,-56,-56,-57,-58,0
study,9138,7,35.57343027,129.18799695,302.0,0.047285482,0.31184477,9.81922,0.005326318,-0.0041278964,-0.003195791,29.430728177916777,89.0,7784.284302447165,2194.346879304881,1067.5852399239247,523.3079160446205,282.86599696711806,207.3564126058349,214.38493579724573,127.9927902932588,166.577345991045,230.15917202329305,60,-560,2,4,6,3,0,1,11,10,5,14,-55,-55,-55,-56,-56,-56,-56,-56,-57,-58,0
study,9143,7,35.57343027,129.18799695,316.0,0.053869538,0.30107087,9.816227,0.005992108,-0.003195791,-0.002663159,33.18269343409136,160.0,5451.37041933615,5199.157026564941,1803.708424929583,800.880815739431,389.7590197948845,278.76968990731405,329.6817095352323,271.7457084902759,396.4650701104599,420.2921425338433,60,-560,2,4,6,3,0,1,11,10,5,14,-55,-55,-55,-56,-56,-56,-56,-56,-57,-58,0
study,9148,7,35.57343027,129.18799695,321.0,0.05686229,0.28909984,9.820416,0.0041278964,-0.0037284228,0.0030626329,31.16762984461517,350.0,8884.713551657907,3807.901492894115,1157.425454410246,514.394485177236,228.2150254752009,206.1692383978313,229.97302713354648,371.88943777045887,527.5650284752608,1025.3430440530983,60,-560,2,4,6,3,0,1,11,10,5,14,-55,-55,-55,-56,-56,-56,-56,-56,-57,-58,0
study,9154,7,35.57343027,129.18799695,309.0,0.05805939,0.28790274,9.815628,0.0049268445,-0.0039947387,-0.0021305273,31.80025737417798,112.0,5881.82083030461,3179.9554302407164,1491.7862878920646,694.2087754305228,353.8704200787415,195.33928072965,213.74593369683384,241.69870276005608,217.55010099505532,475.3738173140784,60,-560,2,4,6,3,0,1,11,10,5,14,-55,-55,-55,-56,-56,-56,-56,-56,-57,-58,0
study,9159,7,35.57343027,129.18799695,318.0,0.05626374,0.2885013,9.818023,0.0047936863,-0.0041278964,0.002929475,29.723358789728763,90.0,10197.5857247335,2858.502048582161,1110.3628669632876,665.2099781521205,375.94677832331104,313.92660785944247,162.87401883207818,184.61200796694808,166.9715765515785,179.69162169769515,60,-560,2,4,6,3,0,1,11,10,5,14,-55,-55,-55,-56,-56,-56,-56,-56,-57,-58,0
study,9164,7,35.57343027,129.18799695,311.0,0.05626374,0.28790274,9.820416,0.0043942127,-0.0035952649,-0.0011984216,27.65455457351964,68.0,5331.986018764095,3640.014333304407,1290.3523082274928,641.1352243040017,315.30773787317713,229.04654897538185,204.1680616824356,150.36331183440095,136.90034653304568,160.5834522188673,60,-560,2,4,6,3,0,1,11,10,5,14,-55,-55,-55,-56,-56,-56,-56,-56,-57,-58,0
study,9169,7,35.57343027,129.18799695,316.0,0.05686229,0.28670564,9.821614,0.0047936863,-0.0039947387,-0.00079894776,31.81819670987068,333.0,5880.968876481083,2602.681174325411,1385.2099025669863,394.24760886539326,246.66285349125505,254.12260027528504,211.21386053549463,154.22642819625509,125.45034630707435,187.6613048290841,60,-560,2,4,6,3,0,1,11,10,5,14,-55,-55,-55,-56,-56,-56,-56,-56,-57,-58,0
study,9174,7,35.57343027,129.18799695,316.0,0.060453594,0.2837129,9.822811,0.0054594763,-0.0039947387,-0.0038615807,33.22839560788736,140.0,7176.564490068875,1722.5882088675644,1517.6385235227176,593.0693554397723,308.31953107612014,230.14201725946504,187.1333103334489,124.33407579604712,162.31822058467435,185.43605629251488,60,-560,2,4,6,3,0,1,11,10,5,14,-55,-55,-55,-56,-56,-56,-56,-56,-57,-58,0
study,9179,7,35.57343027,129.18799695,316.0,0.055066638,0.28311434,9.817424,0.005060002,-0.002663159,-0.0021305273,31.1307860088036,116.0,5798.081775434053,4370.436545190803,512.8592424401991,405.7973237898677,189.9486072400451,195.6511482190495,162.124983352143,146.54894285747207,114.63751581297451,198.258472357398,60,-560,2,4,6,3,0,1,11,10,5,14,-55,-55,-55,-56,-56,-56,-56,-56,-57,-58,0
study,9184,7,35.57343027,129.18799695,324.0,0.051475335,0.28431144,9.818023,0.0047936863,-0.003328949,0.003328949,43.1852827335115,2595.0,7331.773066553936,2389.943593708213,905.7016316507892,426.3725696973801,348.57841924152325,400.9838057490409,486.641861154721,695.6138633136746,2298.8194613766887,4293.9020974489285,60,-560,2,4,6,3,0,1,11,10,5,14,-55,-55,-55,-56,-56,-56,-56,-56,-57,-58,0
study,9189,7,35.57343027,129.18799695,318.0,0.05327099,0.28431144,9.816227,0.00585895,-0.0035952649,-0.003195791,29.4451874802666,80.0,3132.987002262008,2536.2151000624203,1386.859470720622,376.9172589246716,236.7778230915518,211.31606296669943,134.16521224301837,147.63553162667068,141.54441282130657,170.55408228750363,60,-560,2,4,6,3,0,1,11,10,5,14,-55,-55,-55,-56,-56,-56,-56,-56,-57,-58,0
study,9194,7,35.57343027,129.18799695,310.0,0.05626374,0.28790274,9.817424,0.005060002,-0.0039947387,-0.0037284228,28.49167047774114,74.0,4472.043330557575,3163.6790955007104,1616.2554263116604,368.4298548524747,300.82920559880665,202.3170679311429,192.82417943508725,140.50510710496982,174.54734697280043,249.9690910722296,60,-560,2,4,6,3,0,1,11,10,5,14,-55,-55,-55,-56,-56,-56,-56,-56,-57,-58,0
study,9199,7,35.57343027,129.18799695,323.0,0.054468088,0.29029694,9.816227,0.0054594763,-0.003328949,0.002929475,31.318463688291985,117.0,8550.11928122206,3721.92039007755,943.7708027715406,323.76031126939625,248.57447180915835,205.8494311065404,180.5702563290675,154.1995523147651,179.21971390844658,335.4803561096857,60,-560,2,4,6,3,0,1,11,10,5,14,-55,-55,-55,-56,-56,-56,-56,-56,-57,-58,0
study,9204,7,35.57343027,129.18799695,322.0,0.05626374,0.29269117,9.822212,0.005326318,-0.0039947387,-0.0071905297,30.31869477009806,110.0,7618.2581247949565,1932.5033016451648,1101.1336826762597,578.1637420607442,402.0855772621939,271.07158433054525,287.34581021169123,191.98677392127425,308.2930783364603,322.2550371839069,60,-560,2,4,6,3,0,1,11,10,5,14,-55,-55,-55,-56,-56,-56,-56,-56,-57,-58,0
study,9209,7,35.57343027,129.18799695,322.0,0.05805939,0.2861071,9.8198185,0.0049268445,-0.0037284228,0.0042610546,30.8764031998954,108.0,9832.30971687616,3380.392636561786,1385.5753060483437,736.3691748814017,475.4000417251988,272.1513108828538,244.9798982247722,254.2541518003536,317.5237921735452,486.97976816319607,60,-560,2,4,6,3,0,1,11,10,5,14,-55,-55,-55,-56,-56,-56,-56,-56,-57,-58,0
study,9214,7,35.57343027,129.18799695,322.0,0.050876785,0.28909984,9.818622,0.0045273704,-0.003195791,0.002663159,30.058804216395743,85.0,5955.894145637242,2744.6335266961555,758.4319065936762,406.9358363857721,196.18844963567264,159.58657947043312,157.66850180459156,143.65185825047632,143.0410260930928,161.01992903527724,60,-560,2,4,6,3,0,1,11,10,5,14,-55,-55,-55,-56,-56,-56,-56,-56,-57,-58,0
study,9219,7,35.57343027,129.18799695,323.0,0.05626374,0.2896984,9.81503,0.005326318,-0.003328949,0.002663159,34.35700645693568,137.0,8767.400019004523,4116.253424536752,1701.2987248005752,513.2737698379536,435.8395784605039,281.2600764167609,203.59712974425983,207.087327236254,172.57479340616027,220.7564775742863,60,-560,2,4,6,3,0,1,11,10,5,14,-55,-55,-55,-56,-56,-56,-56,-56,-57,-58,0
study,9224,7,35.57343027,129.18799695,323.0,0.05327099,0.2885013,9.816826,0.005326318,-0.003462107,0.0014647375,28.79300725729003,78.0,11334.293079193829,3569.7851426142247,1984.7105444025724,874.84609381077,509.6940311091928,352.3240487252678,287.058637312311,198.13317862972028,204.95263315733655,177.2484550508619,60,-560,2,4,6,3,0,1,11,10,5,14,-55,-55,-55,-56,-56,-56,-56,-56,-57,-58,0
study,9229,7,35.57343027,129.18799695,321.0,0.05327099,0.28670564,9.815628,0.005326318,-0.003328949,0.0014647375,28.82123344595357,86.0,5560.6878578656615,3690.254822694688,1590.8384486999566,532.9963301895469,297.8394028818846,185.87845721168475,207.39986692263395,152.94442249535396,148.05918253630605,181.82779726549705,60,-560,2,4,6,3,0,1,11,10,5,14,-55,-55,-55,-56,-56,-56,-56,-56,-57,-58,0
study,9234,7,35.57343027,129.18799695,323.0,0.050876785,0.28491,9.820416,0.0046605286,-0.0037284228,0.0002663159,34.744388779228686,1134.0,13488.471886746567,8188.102887242497,3695.784204849048,1150.5630002293556,1373.0347117062702,995.7894916814172,1750.8285110916015,1066.552934953629,1038.6267364652747,1213.2151045643332,60,-560,2,4,6,3,0,1,11,10,5,14,-55,-55,-55,-56,-56,-56,-56,-56,-57,-58,0
study,9239,7,35.57343027,129.18799695,326.0,0.054468088,0.28431144,9.818023,0.0049268445,-0.003195791,0.0018642114,28.735581843638364,91.0,7383.499979060432,3479.3412042588607,1509.1216418319982,677.8778696779058,228.91833622164552,175.7889637613065,139.64227840126418,139.49767066113066,147.90964359416154,171.8897417651376,67,-563,0,11,10,1,4,3,2,6,14,13,-54,-54,-54,-55,-56,-57,-57,-58,-59,-59,0
study,9244,7,35.57343027,129.18799695,325.0,0.051475335,0.29747957,9.817424,0.005060002,-0.003462107,0.0005326318,28.176738056992864,81.0,7181.014011385958,3607.697072381531,1450.980833609843,760.0680113793221,394.4796419108561,206.5585085387596,205.353501029918,133.56661193339644,136.0242622638181,168.6162127794448,51,-559,18,3,4,6,2,19,5,7,8,9,-50,-53,-54,-54,-56,-56,-59,-59,-59,-59,0
study,9249,7,35.57343027,129.18799695,325.0,0.05327099,0.29867667,9.8198185,0.0054594763,-0.003462107,0.00079894776,27.909157242307923,87.0,9007.67373636815,3730.26671515684,1832.45318080623,557.6003790789044,323.9263611971921,264.3478185239077,235.4571663335408,160.29940028010253,152.26437326410198,185.62613841217677,54,-556,3,2,4,6,11,0,10,14,1,5,-54,-54,-54,-54,-55,-56,-56,-57,-57,-59,0
study,9254,7,35.57343027,129.18799695,326.0,0.053869538,0.30047232,9.820416,0.0039947387,-0.003462107,0.00039947388,28.62212100271225,76.0,7740.808358822445,4377.600857610052,1674.0549668948277,376.1938207845465,308.76365037934096,221.78967118446843,188.10782061904908,166.024053710372,176.75177620554396,212.372142228294,63,-558,3,2,6,4,10,14,13,15,12,5,-54,-54,-54,-55,-56,-57,-57,-57,-57,-57,0
study,9259,7,35.57343027,129.18799695,325.0,0.053869538,0.29448682,9.820416,0.005326318,-0.003462107,-0.0021305273,30.37247810087895,103.0,7084.733516125178,2784.524578144202,1874.3674890770085,557.187104613957,333.24811353973297,173.9030534416636,175.0662593383651,144.1615939140516,172.4659151565877,244.133031317906,63,-558,3,2,6,4,10,14,13,15,12,5,-54,-54,-54,-55,-56,-57,-57,-57,-57,-57,0
study,9264,7,35.57343027,129.18799695,325.0,0.05566519,0.2885013,9.821614,0.0051931604,-0.0039947387,-0.00039947388,30.88114325950018,96.0,9434.833149597516,2662.055962930298,1366.9438979554457,382.13198953410114,314.290691439176,325.31678357046366,187.24019416538877,180.72815695302864,175.57486853048945,265.2281324014175,63,-558,3,2,6,4,10,14,13,15,12,5,-54,-54,-54,-55,-56,-57,-57,-57,-57,-57,0
study,9269,7,35.57343027,129.18799695,325.0,0.05267244,0.2861071,9.818023,0.005592634,-0.0037284228,0.0042610546,33.884646763354105,140.0,10179.392285293068,5844.890628853483,1238.2629302974494,433.9870125438649,665.2534304377583,279.3010985772718,259.4127668877877,176.4210459746122,190.8503457672821,194.69052279855785,63,-558,3,2,6,4,10,14,13,15,12,5,-54,-54,-54,-55,-56,-57,-57,-57,-57,-57,0
study,9274,7,35.57343027,129.18799695,325.0,0.050876785,0.2908955,9.81922,0.005326318,-0.003462107,0.0019973693,28.432369505628685,74.0,8121.89752908491,2692.901748146346,1649.1347279188406,659.4169809197103,425.8275785380067,258.9724126773494,247.6465914982413,198.57403630039835,163.1867893602299,222.66368686389413,63,-558,3,2,6,4,10,14,13,15,12,5,-54,-54,-54,-55,-56,-57,-57,-57,-57,-57,0
study,9279,7,35.57343027,129.18799695,325.0,0.054468088,0.29029694,9.818023,0.0045273704,-0.0035952649,-0.00013315796,30.108522337788447,98.0,7594.805112694521,4309.070297880118,1920.954521499582,437.80056818397486,322.9153390431593,243.01224272645752,255.88570710527725,170.09797282008074,212.64538997888812,267.20490878317406,63,-558,3,2,6,4,10,14,13,15,12,5,-54,-54,-54,-55,-56,-57,-57,-57,-57,-57,0
study,9284,7,35.57343027,129.18799695,325.0,0.05566519,0.28909984,9.821015,0.0046605286,-0.0041278964,-0.0015978955,32.44078913255081,394.0,4135.450116870844,4409.179504740185,1588.683668085219,723.1067240651531,425.1429454329991,308.38762881123205,202.2916243255626,215.0452012607735,269.48618938588726,409.8753752490086,63,-558,3,2,6,4,10,14,13,15,12,5,-54,-54,-54,-55,-56,-57,-57,-57,-57,-57,0
study,9289,7,35.57343027,129.18799695,325.0,0.05626374,0.2873042,9.814431,0.0045273704,-0.0038615807,0.0018642114,30.677081452807936,112.0,8789.491818400355,5192.051242120492,1408.945013341506,670.1826948782525,445.2502844374424,266.0702775303223,278.5338366817165,221.8638658385888,188.7680498167603,313.96829071309674,63,-558,3,2,6,4,10,14,13,15,12,5,-54,-54,-54,-55,-56,-57,-57,-57,-57,-57,0
study,9295,7,35.57343027,129.18799695,298.0,0.046088383,0.3465607,9.812037,0.005060002,-0.003462107,0.0021305273,33.68646682780846,140.0,13110.715430522376,3600.387082942749,2667.1770764034904,1107.0438941134244,808.6184547096308,601.7303613687508,462.27633077688216,325.03710478052176,252.0797112572271,295.541452128477,63,-558,3,2,6,4,10,14,13,15,12,5,-54,-54,-54,-55,-56,-57,-57,-57,-57,-57,0
study,9300,7,35.57343027,129.18799695,296.0,0.047884032,0.3441665,9.816227,0.0045273704,-0.0037284228,0.0011984216,31.140755071579488,106.0,10464.14602906094,3681.127795911485,1380.0415075317544,667.1579114269481,489.4504965450298,246.35678758504395,208.33740849459983,197.22953205141047,156.34210277381453,171.28234239910108,63,-558,3,2,6,4,10,14,13,15,12,5,-54,-54,-54,-55,-56,-57,-57,-57,-57,-57,0
study,9305,7,35.57343027,129.18799695,296.0,0.049679685,0.3465607,9.817424,0.0049268445,-0.0038615807,0.008655267,34.03070754776534,177.0,8424.901254619586,9242.137202319842,5109.026095173206,1424.1146598927808,933.3874260949208,1278.1462527828585,1129.7050705876195,762.0518642116942,803.1608378541806,1190.771508915146,63,-558,3,2,6,4,10,14,13,15,12,5,-54,-54,-54,-55,-56,-57,-57,-57,-57,-57,0
study,9310,7,35.57343027,129.18799695,295.0,0.046088383,0.3453636,9.820416,0.0043942127,-0.0030626329,0.0054594763,30.40930207962753,101.0,6887.612506334956,2127.055090439368,1735.814433619195,592.6427367710168,295.38368984879145,249.68821722343395,251.573015685429,204.8270829202065,241.55361561896788,469.6791312782244,63,-558,3,2,6,4,10,14,13,15,12,5,-54,-54,-54,-55,-56,-57,-57,-57,-57,-57,0
study,9315,7,35.57343027,129.18799695,301.0,0.051475335,0.30166942,9.813234,0.0045273704,-0.0017310535,0.0045273704,30.902632700596328,271.0,8343.648866400086,4384.506856984278,2217.218707928666,1099.684329689125,490.0604997825337,569.0700230162778,315.38306255330167,298.95960417369315,306.0781300495199,1010.4236740198422,63,-558,3,2,6,4,10,14,13,15,12,5,-54,-54,-54,-55,-56,-57,-57,-57,-57,-57,0
study,9320,7,35.57343027,129.18799695,327.0,0.05925649,0.29747957,9.816826,0.005326318,-0.0037284228,0.0017310535,29.871092716206785,82.0,9357.35886772077,1795.0880306779084,1305.5090671419164,284.07741514393194,294.0821758047701,228.72629919931504,198.383137673086,149.90258959536175,156.2086400500709,148.14236023945332,63,-558,3,2,6,4,10,14,13,15,12,5,-54,-54,-54,-55,-56,-57,-57,-57,-57,-57,0
study,9325,7,35.57343027,129.18799695,319.0,0.050876785,0.2908955,9.816826,0.005326318,-0.0035952649,0.0035952649,28.64204391106387,94.0,9795.23865718574,7309.180953618864,1522.498647464266,361.1283166165272,502.86814053502286,362.0295874570233,307.4973363995774,165.69819721805024,178.4764494424764,279.55923507080763,63,-558,3,2,6,4,10,14,13,15,12,5,-54,-54,-54,-55,-56,-57,-57,-57,-57,-57,0
study,9330,7,35.57343027,129.18799695,326.0,0.053869538,0.29448682,9.8198185,0.0049268445,-0.0038615807,-0.002530001,37.1735937339822,1039.0,8767.784882234082,4108.73159801446,1504.528147846787,824.312172171515,478.1515452876648,457.71108719463535,587.593914830685,828.6017722238975,709.5637843184676,1933.6344395931037,63,-558,3,2,6,4,10,14,13,15,12,5,-54,-54,-54,-55,-56,-57,-57,-57,-57,-57,0
study,9335,7,35.57343027,129.18799695,313.0,0.05207389,0.29029694,9.820416,0.0046605286,-0.0037284228,0.005060002,28.396777400502117,89.0,4259.649419171026,3027.687922889761,1859.8534545796424,373.3426736694071,221.1598257656342,300.52356472513804,170.50846532121534,158.92451957501373,160.5672831485395,202.42804332042428,63,-558,3,2,6,4,10,14,13,15,12,5,-54,-54,-54,-55,-56,-57,-57,-57,-57,-57,0
study,9340,7,35.57343027,129.18799695,295.0,0.055066638,0.2896984,9.812635,0.0067910557,-0.002663159,-0.0015978955,30.300180722116,112.0,8093.846334817657,4121.350715198374,1253.4838685602783,651.1220410891336,259.5960754115372,232.6441563684402,255.7171642053001,248.8006918075929,293.6474151916448,399.29130693724215,63,-558,3,2,6,4,10,14,13,15,12,5,-54,-54,-54,-55,-56,-57,-57,-57,-57,-57,0
study,9345,7,35.57343027,129.18799695,294.0,0.05327099,0.30286652,9.822811,0.0038615807,-0.0039947387,-0.0023968432,30.686616049306355,110.0,9142.939754961866,3787.545227476511,1407.1850336795617,706.8274422110362,329.6887608301693,242.60687217337983,262.8369934731288,190.47087940753892,331.14686803952367,576.3847799501256,63,-558,3,2,6,4,10,14,13,15,12,5,-54,-54,-54,-55,-56,-57,-57,-57,-57,-57,0
study,9350,7,35.57343027,129.18799695,293.0,0.05207389,0.31004912,9.825205,0.0042610546,-0.0035952649,-0.00079894776,29.904019162019274,126.0,4104.4262477828925,5893.558237709303,3895.34566295109,2456.741255123232,490.35824213224777,587.4227850406187,555.9039535176714,350.7602602586346,311.07006182597854,697.6350212343433,63,-558,3,2,6,4,10,14,13,15,12,5,-54,-54,-54,-55,-56,-57,-57,-57,-57,-57,0
study,9355,7,35.57343027,129.18799695,300.0,0.05327099,0.32800564,9.8198185,0.006258424,-0.0035952649,-0.0019973693,30.673593188101307,112.0,2316.2053756850823,3314.6616006622107,1583.0863097057022,680.7749072269348,299.34200623635775,347.3472296477939,243.11104818053843,252.93598161503857,266.9777440907107,478.3318850425912,63,-558,3,2,6,4,10,14,13,15,12,5,-54,-54,-54,-55,-56,-57,-57,-57,-57,-57,0
study,9360,7,35.57343027,129.18799695,298.0,0.048482586,0.3274071,9.818023,0.005060002,-0.0042610546,0.0,32.22594117031176,125.0,8237.102101508142,3531.014230493084,1005.2183059438936,490.1638261569136,312.63229950563993,347.4039857582104,315.69705118995,241.5046495039371,471.8874601442688,933.5733340340988,53,-564,3,11,10,0,4,6,1,2,5,7,-55,-55,-55,-56,-56,-56,-56,-57,-59,-59,0
study,9365,7,35.57343027,129.18799695,298.0,0.049081136,0.3309984,9.816227,0.005326318,-0.0037284228,-0.0017310535,31.68699423828657,142.0,11428.488904496606,2217.915191403326,1738.801712474735,519.7361739380823,229.85968742314788,276.30712033976624,378.771793929337,273.2231267650503,435.5367769215865,1039.811012439092,63,-564,0,10,2,1,11,12,4,14,3,6,-55,-55,-56,-56,-56,-56,-57,-57,-58,-58,0
study,9370,7,35.57343027,129.18799695,296.0,0.049081136,0.3196259,9.818023,0.0051931604,-0.003195791,-0.00079894776,32.43250712274272,140.0,5088.6745668130325,5572.297779958475,1439.6458559544135,705.9488354447619,426.3720079537737,264.8082222056564,271.0650591261272,191.4022008904404,268.0494517751971,379.40850242545946,56,-548,6,3,2,0,4,1,11,10,19,14,-52,-53,-53,-54,-54,-55,-55,-56,-58,-58,0
study,9375,7,35.57343027,129.18799695,304.0,0.05267244,0.30286652,9.818023,0.003462107,-0.0042610546,0.009321057,32.54116025562165,167.0,5184.772541532566,4229.807435636339,1366.996123106049,364.12790356086657,239.68445249071547,198.06575290723129,197.0783513461357,148.0419471024253,215.72327440088563,324.59369973270293,67,-569,0,3,2,4,6,11,10,20,19,1,-55,-56,-56,-56,-56,-56,-57,-59,-59,-59,0
study,9380,7,35.5734293,129.18803518,297.0,0.054468088,0.30825347,9.822212,0.0049268445,-0.003328949,-0.0011984216,33.500159369137855,265.0,3829.4696772722937,4417.7666082561545,1571.7629521940844,387.4483322589931,290.04496791311345,181.40407759716615,216.20846386473815,179.3059672744113,181.88362337765255,213.52388816588223,67,-569,0,3,2,4,6,11,10,20,19,1,-55,-56,-56,-56,-56,-56,-57,-59,-59,-59,0
study,9385,7,35.5734293,129.18803518,296.0,0.048482586,0.30346507,9.816227,0.0043942127,-0.003328949,-0.0037284228,31.76248839937999,126.0,9592.26700678752,10635.57405426442,2163.6533659585198,472.5576407517052,369.71770830983615,294.2787355601644,239.1002547876482,187.4589034489273,187.1092951742427,267.62329044668144,67,-569,0,3,2,4,6,11,10,20,19,1,-55,-56,-56,-56,-56,-56,-57,-59,-59,-59,0
study,9390,7,35.5734293,129.18803518,298.0,0.050876785,0.30945057,9.81922,0.0049268445,-0.0038615807,0.0019973693,36.03618724180461,1007.0,7019.885516947683,3850.357222477246,1480.8399235141076,572.3053747829932,520.5212159132724,191.19844271949563,283.65503712255565,453.8061661223503,895.9702979969934,1795.7655981526243,67,-569,0,3,2,4,6,11,10,20,19,1,-55,-56,-56,-56,-56,-56,-57,-59,-59,-59,0
study,9395,7,35.5734293,129.18803518,296.0,0.05327099,0.30765492,9.820416,0.005326318,-0.0039947387,0.0030626329,38.82798772663645,549.0,6656.761171436628,2730.5671980860543,1379.2534849987887,624.5654671477532,248.56523830459184,196.06292855224436,221.33311466922584,194.6768786711728,269.54941024734006,358.0626823604119,67,-569,0,3,2,4,6,11,10,20,19,1,-55,-56,-56,-56,-56,-56,-57,-59,-59,-59,0
study,9400,7,35.5734293,129.18803518,295.0,0.050278235,0.30585927,9.809643,0.005592634,-0.003328949,0.0051931604,29.59783127486658,94.0,6115.706392562345,3025.208484967344,1080.804119181791,395.7846282452488,227.7759427354196,167.43752308088298,179.72683287076117,141.82670511991586,143.06331454782685,153.4183980639313,67,-569,0,3,2,4,6,11,10,20,19,1,-55,-56,-56,-56,-56,-56,-57,-59,-59,-59,0
study,9405,7,35.5734293,129.18803518,298.0,0.049081136,0.31603462,9.815628,-0.005592634,-0.0042610546,0.002530001,37.451217120233565,1043.0,10391.952048334557,4331.645638811261,639.4289545418808,400.5902952432196,275.35735199199,238.80291560446716,177.97560939908368,137.2004271755488,119.8575278863608,156.11731743404584,67,-569,0,3,2,4,6,11,10,20,19,1,-55,-56,-56,-56,-56,-56,-57,-59,-59,-59,0
study,9410,7,35.5734293,129.18803518,303.0,0.050876785,0.30107087,9.820416,0.005592634,-0.003328949,-0.003195791,32.31160140284119,101.0,6791.882172459436,3049.4427533848684,945.0052843359008,462.4901126037848,238.0373763020982,252.20636773705533,183.20187002186023,161.53140479420014,185.40536266290516,191.1666981172056,67,-569,0,3,2,4,6,11,10,20,19,1,-55,-56,-56,-56,-56,-56,-57,-59,-59,-59,0
study,9415,7,35.5734293,129.18803518,300.0,0.049081136,0.29987377,9.821614,0.005060002,-0.003462107,-0.00039947388,36.27860224343924,1981.0,6851.195997801393,2886.47439963476,2303.2936444996,837.7336434785637,586.8053613492793,540.246861728236,791.6426058584603,703.2733724429106,1122.5607360674649,2410.49463022155,67,-569,0,3,2,4,6,11,10,20,19,1,-55,-56,-56,-56,-56,-56,-57,-59,-59,-59,0
study,9420,7,35.5734293,129.18803518,298.0,0.050876785,0.29628247,9.818023,0.005060002,-0.0042610546,0.003195791,34.807419226909644,474.0,5558.64962993599,3870.483508215396,901.3256228553724,837.4940684702916,312.543850650439,306.2281935532922,412.6646396491505,566.4808458552163,494.2342191171768,1158.140077616851,67,-569,0,3,2,4,6,11,10,20,19,1,-55,-56,-56,-56,-56,-56,-57,-59,-59,-59,0
study,9425,7,35.5734293,129.18803518,301.0,0.048482586,0.31184477,9.813234,0.00585895,-0.003328949,0.0039947387,33.77289375570866,332.0,3908.68773073072,3595.0470380697625,1116.7079433154809,513.2759103271064,324.9064151747248,175.20529688018212,153.1672575482695,152.36550159362824,143.67242054978678,171.48478534506486,67,-569,0,3,2,4,6,11,10,20,19,1,-55,-56,-56,-56,-56,-56,-57,-59,-59,-59,0
study,9431,7,35.5734293,129.18803518,298.0,0.053869538,0.31483752,9.820416,0.0051931604,-0.003328949,-0.00039947388,29.879987480594185,149.0,2565.458996121819,3913.0772719914858,1326.661030506649,379.2928843016731,217.7776216851072,187.68598490430367,155.69950488172,156.8716401082883,141.21420892671532,155.96518803827382,67,-569,0,3,2,4,6,11,10,20,19,1,-55,-56,-56,-56,-56,-56,-57,-59,-59,-59,0
study,9436,7,35.5734293,129.18803518,301.0,0.05327099,0.29747957,9.817424,0.005592634,-0.0030626329,-0.00013315796,31.735778397437503,124.0,6046.604762261477,1968.882542811838,1073.043314485899,341.5248015555615,287.4730622277847,217.8986817312011,345.0692354311048,356.87315465717063,371.1719158074803,418.3162683927167,67,-569,0,3,2,4,6,11,10,20,19,1,-55,-56,-56,-56,-56,-56,-57,-59,-59,-59,0
study,9441,7,35.5734293,129.18803518,307.0,0.05267244,0.30406362,9.821015,0.0054594763,-0.0041278964,-0.002929475,26.59177379975445,69.0,4636.093886507888,3110.5232384786427,1270.9266921678673,444.1671017314536,305.35190924895693,234.1418117474258,157.833731982923,145.8601318613003,177.8191604169219,151.17161086597503,67,-569,0,3,2,4,6,11,10,20,19,1,-55,-56,-56,-56,-56,-56,-57,-59,-59,-59,0
study,9446,7,35.5734293,129.18803518,313.0,0.05566519,0.30107087,9.813234,0.0054594763,-0.0039947387,0.0043942127,28.819427263565977,87.0,9393.040224064263,3258.8279678633144,975.3197085125148,362.2621841712679,237.71445147916089,159.1726251928124,194.5000583311993,147.2498577864171,124.35824626390742,151.69630928215457,67,-569,0,3,2,4,6,11,10,20,19,1,-55,-56,-56,-56,-56,-56,-57,-59,-59,-59,0
study,9451,7,35.5734293,129.18803518,315.0,0.05566519,0.30107087,9.8198185,0.0049268445,-0.0038615807,0.0039947387,27.99728523720487,83.0,5100.995018434489,4025.8168933595457,1523.2794371917748,520.5706750874738,305.7869050115023,307.1039675942431,165.89080277683925,151.95764615030475,164.58511955354425,174.2205067411093,67,-569,0,3,2,4,6,11,10,20,19,1,-55,-56,-56,-56,-56,-56,-57,-59,-59,-59,0
study,9456,7,35.5734293,129.18803518,313.0,0.05267244,0.30166942,9.8198185,0.0041278964,-0.0035952649,-0.0009321057,28.215113351699912,87.0,2715.9398157207124,3383.8512642284777,1927.5992629878397,340.63874892158685,242.03216284890675,173.86657833565178,176.47447425762596,139.2398365749045,158.24578250321295,133.6533465134061,67,-569,0,3,2,4,6,11,10,20,19,1,-55,-56,-56,-56,-56,-56,-57,-59,-59,-59,0
study,9461,7,35.5734293,129.18803518,305.0,0.054468088,0.30226797,9.820416,0.005326318,-0.003462107,0.0046605286,27.571637834827,90.0,4622.555946092051,3561.517173375917,1110.7586830565472,290.6870394343487,201.17613698930765,227.88291871809307,182.4926269815712,142.5767628401841,130.01720169805756,170.5318583958002,67,-569,0,3,2,4,6,11,10,20,19,1,-55,-56,-56,-56,-56,-56,-57,-59,-59,-59,0
study,9466,7,35.5734293,129.18803518,300.0,0.05267244,0.30047232,9.820416,0.0051931604,-0.0038615807,0.002796317,29.412869080072312,78.0,4017.826778014797,3145.379128351202,1407.084276164475,565.2619462108023,281.9441299966497,262.59673336262534,241.9793707551705,222.46225708331,155.56567025667005,155.70959693526723,67,-569,0,3,2,4,6,11,10,20,19,1,-55,-56,-56,-56,-56,-56,-57,-59,-59,-59,0
study,9471,7,35.5734293,129.18803518,300.0,0.05207389,0.29807812,9.820416,0.0049268445,-0.0035952649,0.0005326318,30.46981120240113,108.0,5298.624115631601,3645.680877265985,1273.3627802446592,435.2258718274755,364.0953462659909,257.5152854338859,201.931904304706,158.31353373088936,157.0161332853278,260.2878066500646,67,-569,0,3,2,4,6,11,10,20,19,1,-55,-56,-56,-56,-56,-56,-57,-59,-59,-59,0
study,9476,7,35.5734293,129.18803518,301.0,0.05207389,0.29987377,9.816826,0.0045273704,-0.003195791,0.005992108,26.85183471034282,76.0,1575.3352734864193,2060.9369960597573,1363.6860037044491,424.2417781351819,197.7709244010933,177.4886118160139,367.5378584994119,408.27473926579984,344.7140026227938,304.33904290076293,67,-569,0,3,2,4,6,11,10,20,19,1,-55,-56,-56,-56,-56,-56,-57,-59,-59,-59,0
study,9481,7,35.5734293,129.18803518,291.0,0.05207389,0.30406362,9.818023,0.0049268445,-0.0037284228,0.0021305273,30.26683255087105,101.0,2864.007726363381,3072.8488067769235,1226.1064789213465,404.5884586696868,225.1192000161882,210.50539190886252,149.11191125477708,128.16195914897446,133.04131816570185,137.5260659660543,59,-576,3,2,6,13,12,7,14,10,15,5,-55,-55,-56,-58,-58,-58,-59,-59,-59,-59,0
study,9486,7,35.5734293,129.18803518,288.0,0.05267244,0.31064767,9.813234,0.005060002,-0.0037284228,0.005725792,30.17000014643445,94.0,5851.7445328692365,3469.2692349034514,1194.7227604530144,381.9781648330725,213.4647297997772,206.50667576496312,286.10590767576554,212.8283886202105,204.1999579867592,385.7338690778209,60,-553,2,3,0,4,6,1,11,10,13,15,-54,-55,-55,-55,-55,-55,-55,-55,-57,-57,0
study,9491,7,35.5734293,129.18803518,289.0,0.05267244,0.30885202,9.816826,0.005060002,-0.0037284228,0.0011984216,27.398660249919452,71.0,4472.534402877627,3117.916978338705,1579.574826509927,634.6416824516191,330.5475922998108,299.2059103950157,214.49733822378917,193.9821440870932,175.61040221485948,191.48171336670777,56,-564,3,2,4,0,1,6,11,10,13,15,-55,-55,-55,-56,-56,-57,-57,-57,-58,-58,0
study,9496,7,35.5734293,129.18803518,291.0,0.048482586,0.31064767,9.81503,0.005060002,-0.0039947387,-0.0021305273,28.5205175247461,90.0,5197.72052643098,3825.6523402937833,931.394736274173,418.09258721189104,273.8588873515807,154.38601397768633,185.052546525635,203.11093606054973,166.8528538505184,334.94437999402044,64,-565,3,2,4,6,1,0,10,11,7,8,-55,-55,-55,-56,-56,-57,-57,-58,-58,-58,0
study,9501,7,35.5734293,129.18803518,292.0,0.05566519,0.29927522,9.813833,0.0051931604,-0.003328949,0.003328949,35.127922353469266,770.0,6809.325406384116,3458.3980338071974,1264.7243333595743,581.6729867021023,354.34332020402354,253.07349451773248,203.5688509833825,151.5288561100023,153.71844862639497,177.09203092284034,64,-565,3,2,4,6,1,0,10,11,7,8,-55,-55,-55,-56,-56,-57,-57,-58,-58,-58,0
study,9506,7,35.5734293,129.18803518,317.0,0.05267244,0.29807812,9.818023,0.0051931604,-0.0039947387,0.0022636852,26.096944348251174,67.0,5972.187589671819,3661.065115308396,1387.816063243931,406.020455380759,270.92060798791084,205.00220096812987,172.3555678409003,167.90913608358318,138.89793566030397,166.75494327708165,64,-565,3,2,4,6,1,0,10,11,7,8,-55,-55,-55,-56,-56,-57,-57,-58,-58,-58,0
study,9511,7,35.5734293,129.18803518,305.0,0.05207389,0.30166942,9.815628,0.0049268445,-0.0035952649,-0.0002663159,26.89575661532545,73.0,3244.7379489346995,3957.5442173182178,956.9100445054167,286.67364176380863,281.58729880330867,189.48007388307292,139.8153771783807,111.86294574056724,129.24223890196987,124.10856409845778,64,-565,3,2,4,6,1,0,10,11,7,8,-55,-55,-55,-56,-56,-57,-57,-58,-58,-58,0
study,9516,7,35.5734293,129.18803518,309.0,0.05267244,0.29388827,9.8198185,0.0054594763,-0.003195791,0.005592634,36.45255030838587,642.0,8757.927367669285,2813.7610252639965,2655.806728599744,886.0624554951619,584.5274100524404,717.8461763035948,481.6080022897071,359.37860156144853,400.13861838826176,1006.6237482521436,64,-565,3,2,4,6,1,0,10,11,7,8,-55,-55,-55,-56,-56,-57,-57,-58,-58,-58,0
study,9521,7,35.5734293,129.18803518,330.0,0.054468088,0.29209262,9.8198185,0.0047936863,-0.003462107,0.0039947387,26.69666774506056,66.0,5517.64199654695,1457.335517792359,1009.5110261864866,389.5309333769935,359.7839294099174,204.39204922579577,163.98798805356802,136.35404051278158,152.76991660891608,182.9970636387134,64,-565,3,2,4,6,1,0,10,11,7,8,-55,-55,-55,-56,-56,-57,-57,-58,-58,-58,0
study,9526,7,35.5734293,129.18803518,328.0,0.05327099,0.2908955,9.816227,0.006657898,-0.0035952649,0.00013315796,36.32556424800829,871.0,9722.941993818553,4818.64204502574,1456.9327745431392,587.2279412775695,331.3015474473509,244.37762005796532,229.56987172659535,190.64191475280612,166.47479411068457,143.96440052881033,64,-565,3,2,4,6,1,0,10,11,7,8,-55,-55,-55,-56,-56,-57,-57,-58,-58,-58,0
study,9531,7,35.5734293,129.18803518,314.0,0.049679685,0.29867667,9.817424,0.005060002,-0.0035952649,0.00079894776,36.04663061165607,958.0,3275.9800666715923,3395.5998629517794,1511.674379160971,489.7377548848103,328.13950185331794,509.4777895969476,1441.1301828188227,1187.5428659586066,933.3227616674536,1609.5956348259535,64,-565,3,2,4,6,1,0,10,11,7,8,-55,-55,-55,-56,-56,-57,-57,-58,-58,-58,0
study,9536,7,35.5734293,129.18803518,313.0,0.05207389,0.29867667,9.818622,0.005725792,-0.0038615807,-0.0042610546,28.533769938087463,200.0,3933.807694606916,3143.8737840588738,873.804248066984,516.2373916803886,347.0779912913201,268.3505664008119,223.85103322564987,360.4037419763588,266.4146663347071,523.3854197271289,64,-565,3,2,4,6,1,0,10,11,7,8,-55,-55,-55,-56,-56,-57,-57,-58,-58,-58,0
study,9541,7,35.5734293,129.18803518,300.0,0.040102877,0.30406362,9.817424,0.005060002,-0.0035952649,-0.00585895,28.50856404879761,89.0,8273.79822833555,2614.873104457752,1079.578581744228,532.4868095285703,318.11177921520857,262.78850131212533,181.14481776365795,138.82524368598152,166.67662291596562,168.0331124022367,64,-565,3,2,4,6,1,0,10,11,7,8,-55,-55,-55,-56,-56,-57,-57,-58,-58,-58,0
study,9546,7,35.5734293,129.18803518,300.0,0.05327099,0.29628247,9.82341,0.0046605286,-0.003462107,0.00039947388,29.32748305542288,80.0,12698.68261687332,3753.1198351310304,1239.9321013240633,614.9046718535924,419.44130902911024,230.1970769711017,224.6325871339969,169.28259605161875,163.80814589675109,157.64261504240224,64,-565,3,2,4,6,1,0,10,11,7,8,-55,-55,-55,-56,-56,-57,-57,-58,-58,-58,0
study,9551,7,35.5734293,129.18803518,306.0,0.05327099,0.29867667,9.822212,0.0049268445,-0.003462107,0.0035952649,26.69267317566987,79.0,4635.449711496826,2999.9529088733684,1687.597852935599,334.3148625629901,194.0462502218596,175.05579642053755,188.23714374701356,140.3183963638147,152.4697505655852,188.35781537220572,64,-565,3,2,4,6,1,0,10,11,7,8,-55,-55,-55,-56,-56,-57,-57,-58,-58,-58,0
study,9556,7,35.5734293,129.18803518,303.0,0.05327099,0.29628247,9.818023,0.005060002,-0.0037284228,0.0002663159,28.902032530445076,82.0,12655.838972226238,2563.5408817051552,874.2610695015942,421.0819793722025,256.4239659196737,209.96873661693343,246.5289422563747,129.91608693753517,135.1612798869178,150.51488972509028,64,-565,3,2,4,6,1,0,10,11,7,8,-55,-55,-55,-56,-56,-57,-57,-58,-58,-58,0
study,9561,7,35.5734293,129.18803518,300.0,0.051475335,0.29508537,9.815628,0.005326318,-0.0038615807,0.0002663159,29.836830335084016,134.0,6781.229341785645,3852.9580673553983,1324.0925029551915,461.2602203973372,185.5867864512993,150.5198667009348,167.77569232071363,150.51789449305616,211.08898872610817,366.3214178647666,64,-565,3,2,4,6,1,0,10,11,7,8,-55,-55,-55,-56,-56,-57,-57,-58,-58,-58,0
study,9566,7,35.5734293,129.18803518,300.0,0.051475335,0.29867667,9.813234,0.0046605286,-0.0037284228,-0.0011984216,26.651667540058813,78.0,6210.223049414572,2929.624567716971,1291.245307170919,358.2107292720867,205.96704032636916,192.75872904446555,165.59243755144408,146.8654192982469,142.12766330175504,212.10735676535728,64,-565,3,2,4,6,1,0,10,11,7,8,-55,-55,-55,-56,-56,-57,-57,-58,-58,-58,0
study,9571,7,35.5734293,129.18803518,303.0,0.048482586,0.29388827,9.821614,0.0051931604,-0.0035952649,-0.0023968432,28.00425352844341,78.0,7403.675085473937,3707.181639288244,1786.7130145598833,827.214735280115,450.1728194640097,325.16949425923605,260.6427857040697,221.2338382618568,165.85111120586984,200.29340178415808,64,-565,3,2,4,6,1,0,10,11,7,8,-55,-55,-55,-56,-56,-57,-57,-58,-58,-58,0
study,9577,7,35.5734293,129.18803518,305.0,0.05566519,0.29448682,9.816227,0.005592634,-0.003462107,0.0015978955,30.047955005957864,87.0,2845.510458446673,4707.590887384782,1986.100702858175,538.2382650846953,525.7710180025092,273.13547561444886,259.3093617202409,205.37376944116104,170.60509477182237,203.64932751808325,64,-565,3,2,4,6,1,0,10,11,7,8,-55,-55,-55,-56,-56,-57,-57,-58,-58,-58,0
study,9582,7,35.5734293,129.18803518,302.0,0.051475335,0.29269117,9.81922,0.0051931604,-0.0037284228,-0.0002663159,27.889866227085093,83.0,5917.221215875135,2060.040244923604,1349.6852576758438,663.206035993261,330.6958819586152,273.4212089527613,255.0758390155928,169.58431962548352,175.32253982535158,250.35940117145051,64,-565,3,2,4,6,1,0,10,11,7,8,-55,-55,-55,-56,-56,-57,-57,-58,-58,-58,0
study,9587,7,35.5734293,129.18803518,304.0,0.051475335,0.29628247,9.81922,0.005725792,-0.0035952649,0.003195791,27.42817372973869,87.0,2580.911028942357,3162.42110203541,1247.562390544489,252.37285408386796,234.22264339188155,162.62605192383938,165.62856347070698,129.47839671328808,127.3251363757408,146.42914529799364,64,-565,3,2,4,6,1,0,10,11,7,8,-55,-55,-55,-56,-56,-57,-57,-58,-58,-58,0
study,9592,7,35.5734293,129.18803518,314.0,0.055066638,0.29448682,9.817424,0.0051931604,-0.003462107,0.0017310535,29.42996553594689,92.0,3233.0331433301585,2756.5043696049106,1384.4169793039428,311.1707516536528,211.6104908469364,199.43253611802703,170.16610994003713,146.34028682289383,146.95960295539484,163.40780772557744,64,-565,3,2,4,6,1,0,10,11,7,8,-55,-55,-55,-56,-56,-57,-57,-58,-58,-58,0
study,9597,7,35.57339812,129.18811237,311.0,0.046686932,0.29568392,9.820416,0.0051931604,-0.0035952649,0.0047936863,29.675168976629823,92.0,6956.864500139873,3833.700315390755,1193.4428881625645,751.3915812964227,359.1689309167923,371.2763322293967,301.6684009706165,183.48925698525252,285.8823891363654,431.370401596836,64,-565,3,2,4,6,1,0,10,11,7,8,-55,-55,-55,-56,-56,-57,-57,-58,-58,-58,0
study,9602,7,35.57337751,129.18814173,305.0,0.048482586,0.29628247,9.815628,0.0049268445,-0.003462107,0.0015978955,29.01309904955244,85.0,9598.555468777433,4005.783028302062,1240.766477131211,619.7635469110186,346.2908112850248,259.5871507249794,211.4063263918607,177.04556789999884,173.74771552322125,295.3270132548494,48,-543,3,6,1,10,2,0,4,11,7,8,-52,-53,-53,-53,-54,-54,-54,-55,-57,-58,0
study,9607,7,35.57336366,129.18818042,305.0,0.051475335,0.29807812,9.818023,0.005060002,-0.0038615807,0.00013315796,27.892357352834807,80.0,4504.777980734934,4074.9596671930376,1188.465789944143,391.8872249611185,263.2570323587942,192.62618528473783,174.15378819523485,126.8352580692576,136.05749997770758,134.85996977604728,44,-543,2,4,3,0,6,1,11,10,5,16,-52,-52,-53,-53,-53,-54,-54,-54,-59,-59,0
study,9612,7,35.5733503,129.18821707,300.0,0.054468088,0.29388827,9.818023,0.0047936863,-0.0035952649,0.0015978955,27.714738764177334,74.0,5996.480879515626,2776.6046251420694,1335.5834468837763,319.3861709699773,280.63191278635003,158.18984180370148,146.35890372600008,105.3385870799842,130.84705656593346,133.95086786050223,46,-547,4,6,11,10,3,2,0,1,5,16,-52,-53,-54,-54,-54,-54,-54,-56,-58,-58,0
study,9617,7,35.57331827,129.18826924,302.0,0.050278235,0.29568392,9.818023,0.00585895,-0.003462107,-0.003462107,29.04158352219436,94.0,6213.811020284585,3068.2278407260555,1284.24524373898,532.2041115338684,359.2184849605663,349.1831594349362,233.63327966982155,207.01899113760635,234.456308547575,516.8979488851479,45,-546,3,4,6,2,1,11,10,0,7,9,-52,-52,-52,-53,-54,-55,-55,-57,-58,-58,0
study,9622,7,35.57328528,129.18830351,302.0,0.048482586,0.29568392,9.822811,0.0051931604,-0.0041278964,-0.0047936863,29.49691344187816,96.0,8094.771025595927,3389.0699332386503,1846.4358342108671,483.1228394498921,310.16859285178253,177.67215183727996,185.00364274734352,134.1967720504542,149.09387511040867,151.64504398215908,45,-546,3,4,6,2,1,11,10,0,7,9,-52,-52,-52,-53,-54,-55,-55,-57,-58,-58,0
study,9627,7,35.57325719,129.18832603,302.0,0.05327099,0.29628247,9.818023,0.0051931604,-0.0039947387,-0.0030626329,29.082354145377604,87.0,8387.538202069076,2498.4965718937237,1127.2277189794286,428.9317076583188,255.77387832428727,183.5842844364481,195.18986187436437,160.51832747769532,150.12602465478665,171.79926013271412,45,-546,3,4,6,2,1,11,10,0,7,9,-52,-52,-52,-53,-54,-55,-55,-57,-58,-58,0
study,9632,7,35.57323022,129.18834556,305.0,0.05207389,0.29568392,9.82341,0.005060002,-0.0035952649,-0.00039947388,30.310688134625217,85.0,9366.127269321223,4147.083869989093,1299.7787198685282,603.908971180033,280.32680370989686,262.73819870617257,165.99524107917242,148.86505387085745,157.03575921984591,188.6989281501776,45,-546,3,4,6,2,1,11,10,0,7,9,-52,-52,-52,-53,-54,-55,-55,-57,-58,-58,0
study,9637,7,35.5732042,129.18833299,313.0,0.05327099,0.29867667,9.821614,0.0054594763,-0.0037284228,0.00013315796,29.826986726266227,102.0,6498.154467805761,2476.2032314796625,1516.4872189983316,341.99488755701776,240.0966518292777,173.63701435495668,202.6369736312377,148.44512919862953,160.8050690778452,250.98843254418188,45,-546,3,4,6,2,1,11,10,0,7,9,-52,-52,-52,-53,-54,-55,-55,-57,-58,-58,0
study,9642,7,35.57313073,129.18827834,317.0,0.05566519,0.29987377,9.813234,0.0054594763,-0.0035952649,0.0010652636,27.340880354744392,57.0,4918.64330033741,2701.9574628549717,1122.0663228831888,399.9260619151832,285.92529423161994,146.65064908928528,156.73082409734016,124.11318007384888,144.5294908865458,196.13289361408988,45,-546,3,4,6,2,1,11,10,0,7,9,-52,-52,-52,-53,-54,-55,-55,-57,-58,-58,0
study,9647,7,35.57313073,129.18827834,312.0,0.050876785,0.30226797,9.822212,0.005725792,-0.0030626329,0.00079894776,28.06853492487354,87.0,6325.635803118725,4382.676139388628,1594.0341362070071,495.8895128384736,269.0465183315098,220.74362029811363,182.04674597544755,141.97082937366102,136.72142432974826,156.09672717047312,45,-546,3,4,6,2,1,11,10,0,7,9,-52,-52,-52,-53,-54,-55,-55,-57,-58,-58,0
study,9652,7,35.57313073,129.18827834,318.0,0.05207389,0.29029694,9.817424,0.005725792,-0.0037284228,0.0013315795,30.181468455346536,89.0,4064.928411589386,4114.396938097221,1452.3220096872335,585.5006310698017,417.2916027101796,228.8779033490282,252.2182533421811,149.30855690295726,180.04852122550412,183.0351249361074,45,-546,3,4,6,2,1,11,10,0,7,9,-52,-52,-52,-53,-54,-55,-55,-57,-58,-58,0
study,9657,7,35.57313073,129.18827834,306.0,0.05207389,0.29029694,9.817424,0.00585895,-0.0037284228,-0.0013315795,27.046820722554106,68.0,4966.604359922244,3894.2011009339576,1213.7050895656337,482.6147282754527,265.555859224484,214.94991505169497,172.34584880615716,137.58319539707793,161.0805166550014,159.86035487445733,45,-546,3,4,6,2,1,11,10,0,7,9,-52,-52,-52,-53,-54,-55,-55,-57,-58,-58,0
study,9662,7,35.5731084,129.18829739,301.0,0.050278235,0.29747957,9.815628,0.0051931604,-0.003195791,0.0018642114,28.35811730506157,75.0,6221.053832213493,2183.2048060967704,1808.2766899668195,510.0756605644107,257.39683250205894,204.8908164955349,160.5714617741465,137.643606432287,153.33614512625388,140.5573232579044,45,-546,3,4,6,2,1,11,10,0,7,9,-52,-52,-52,-53,-54,-55,-55,-57,-58,-58,0
study,9667,7,35.5731084,129.18829739,303.0,0.05207389,0.29568392,9.818023,0.005326318,-0.0037284228,0.0039947387,27.088091534443095,64.0,5932.91808410955,2217.5360011415896,1702.359560524986,576.0550759182605,364.4792207213898,331.16151529310247,184.616152866852,190.9902690639236,161.49862341739296,146.13870527150095,45,-546,3,4,6,2,1,11,10,0,7,9,-52,-52,-52,-53,-54,-55,-55,-57,-58,-58,0
study,9672,7,35.57310934,129.18833461,301.0,0.050278235,0.29508537,9.815628,0.0051931604,-0.0035952649,-0.002663159,27.79952425419679,74.0,6738.662107006132,2663.404088185948,1228.8868982972117,485.70432642306,211.8800184877481,181.1673300626233,144.95786263529857,153.81314324425273,116.2639942214371,147.6448510337857,45,-546,3,4,6,2,1,11,10,0,7,9,-52,-52,-52,-53,-54,-55,-55,-57,-58,-58,0
study,9677,7,35.57310934,129.18833461,302.0,0.049679685,0.30107087,9.81503,0.005060002,-0.0037284228,-0.00079894776,30.522814904272497,94.0,7722.002350692165,3365.162342441194,1701.913738600241,593.4692867584496,442.24873311195046,261.20101184761234,181.00496132664384,196.39810186635145,147.5117779222663,189.9341926497951,45,-546,3,4,6,2,1,11,10,0,7,9,-52,-52,-52,-53,-54,-55,-55,-57,-58,-58,0
study,9682,7,35.57312429,129.18828308,307.0,0.050876785,0.29628247,9.820416,0.0049268445,-0.003462107,0.0037284228,28.786367050751576,82.0,6880.413953808398,2625.2086004086777,1360.2963302468029,462.6057125555739,211.24922872898264,221.9674362328869,201.9963059052248,203.59248710760787,196.0078059360457,309.4838527539829,45,-546,3,4,6,2,1,11,10,0,7,9,-52,-52,-52,-53,-54,-55,-55,-57,-58,-58,0
study,9687,7,35.57313476,129.18825197,305.0,0.05327099,0.29508537,9.813234,0.005326318,-0.0035952649,-0.0022636852,27.146258146226824,63.0,5680.683130005738,2509.8072312747104,1142.1762945093676,524.6146634283427,247.2398712943848,187.7403067133594,208.51177245264657,143.01927818884877,144.50213749034097,170.31873490316124,45,-546,3,4,6,2,1,11,10,0,7,9,-52,-52,-52,-53,-54,-55,-55,-57,-58,-58,0
study,9692,7,35.57313476,129.18825197,304.0,0.05327099,0.29628247,9.820416,0.005592634,-0.0039947387,-0.0030626329,29.15961621941006,94.0,4910.260272638325,3509.849784216181,1865.848952121666,622.1171504075318,450.83411988434176,340.744974059536,222.13972511704569,185.673479756167,143.79195805680297,146.4816363492444,45,-546,3,4,6,2,1,11,10,0,7,9,-52,-52,-52,-53,-54,-55,-55,-57,-58,-58,0
study,9697,7,35.57313476,129.18825197,305.0,0.051475335,0.29149407,9.825804,0.0041278964,-0.0042610546,0.0049268445,32.552520393553344,248.0,5189.94493825123,2278.471604195518,1126.7469493913384,531.6165940501938,213.27026466855548,196.11509722753655,177.76585861723936,144.59953712493478,152.42648198415927,150.8397889086461,45,-546,3,4,6,2,1,11,10,0,7,9,-52,-52,-52,-53,-54,-55,-55,-57,-58,-58,0
study,9702,7,35.57317051,129.1879834,304.0,0.051475335,0.29388827,9.818023,0.005592634,-0.0035952649,-0.00013315796,28.696353426656337,73.0,10113.401981513272,3182.937276064641,1042.9002989539026,450.332949813632,262.57453177493034,216.2921614526722,194.32070608662912,143.8095432976683,157.01222783804295,171.39852207185956,45,-546,3,4,6,2,1,11,10,0,7,9,-52,-52,-52,-53,-54,-55,-55,-57,-58,-58,0
study,9708,7,35.57319851,129.18795136,305.0,0.053869538,0.29688102,9.813833,0.005060002,-0.0041278964,0.0,29.212007747217648,123.0,6279.013591856438,2785.4487239309005,1129.714530426247,381.8793368859186,308.8229449120784,231.5665586319032,235.5537805945893,188.12828430625237,175.87926202624064,302.3445388355551,45,-546,3,4,6,2,1,11,10,0,7,9,-52,-52,-52,-53,-54,-55,-55,-57,-58,-58,0
study,9713,7,35.57324246,129.18796175,301.0,0.05207389,0.30346507,9.81922,0.0049268445,-0.0039947387,-0.003462107,39.83753081788873,1516.0,7315.87396299248,3563.3844554061825,1464.5129158034956,462.1332830068228,205.16915137590655,238.67469053447212,224.1764033971833,178.62928896270068,135.73502742958033,173.72161861407216,45,-546,3,4,6,2,1,11,10,0,7,9,-52,-52,-52,-53,-54,-55,-55,-57,-58,-58,0
study,9718,7,35.57324246,129.18796175,300.0,0.053869538,0.29927522,9.816826,0.005326318,-0.0038615807,0.0046605286,29.247544971877986,91.0,3736.066111424494,3250.671875067781,1106.1887733606836,612.8466083362747,332.7923679469023,239.03922319574545,171.20013965698152,127.74117480516044,146.6385532371942,159.81402491397483,45,-546,3,4,6,2,1,11,10,0,7,9,-52,-52,-52,-53,-54,-55,-55,-57,-58,-58,0
study,9723,7,35.57345089,129.18795683,303.0,0.05746084,0.29628247,9.818023,0.0049268445,-0.003328949,0.0043942127,26.30487465649192,60.0,8251.990891713935,1891.3338628925733,630.1520086055615,427.16224639026296,302.35647238696026,140.85755431941806,179.72568809291616,141.3993843176995,135.34759417732113,164.34126987444006,63,-553,4,2,3,0,1,10,6,5,7,9,-52,-53,-54,-54,-54,-54,-55,-59,-59,-59,0
study,9728,7,35.57346366,129.18791569,304.0,0.05207389,0.29628247,9.81503,0.0051931604,-0.0038615807,0.002530001,26.944396827123143,68.0,4285.267479833015,1800.0853039106164,1124.977726497881,408.89085432885446,261.7534430927297,147.6847046159346,142.37023470326807,138.96420899570106,138.2031931963368,138.12489476828665,63,-561,3,2,6,4,15,12,14,13,8,9,-53,-53,-53,-54,-57,-57,-58,-58,-59,-59,0
study,9733,7,35.57350871,129.18784878,300.0,0.053869538,0.29688102,9.817424,0.0051931604,-0.0039947387,-0.0005326318,27.65173384316986,85.0,5586.888442386284,3285.8070937085336,1382.3484092021272,445.7687034950292,277.691229177673,260.51054624880027,179.5684668130934,202.08815537026277,235.2626293536402,224.35470600207333,65,-552,3,2,0,1,4,11,10,15,13,14,-54,-54,-54,-54,-55,-55,-55,-56,-57,-58,0
study,9738,7,35.57350871,129.18784878,301.0,0.05207389,0.29508537,9.821015,0.005592634,-0.0039947387,0.0019973693,28.714240460658868,98.0,12640.470197175186,3874.8970896202527,1314.8483154318778,400.11158511217394,252.81701744454668,208.0462825990828,166.0749676753623,146.8809197695678,146.34613859827704,210.4520564857551,55,-538,3,2,0,1,10,6,11,21,4,14,-53,-53,-53,-53,-53,-54,-54,-54,-55,-56,0
study,9743,7,35.57358699,129.1877737,303.0,0.05207389,0.29508537,9.820416,0.0051931604,-0.0037284228,0.003328949,29.09341232113708,78.0,7762.595421139239,2791.39571111257,1494.218804069939,425.12517580956734,291.2623581623365,201.25934931930104,196.293036756767,141.34420402758366,183.36712933148655,205.2172687714572,55,-538,3,2,0,1,10,6,11,21,4,14,-53,-53,-53,-53,-53,-54,-54,-54,-55,-56,0
study,9748,7,35.57358699,129.1877737,305.0,0.050278235,0.29628247,9.8198185,0.005592634,-0.003328949,-0.0010652636,28.842328826337656,103.0,7260.258648142403,3164.486967609761,1219.68051541284,464.0419706967703,317.308019314568,177.32157627649235,171.0012078717775,148.27352220849406,198.8967855695362,290.0811919633123,55,-538,3,2,0,1,10,6,11,21,4,14,-53,-53,-53,-53,-53,-54,-54,-54,-55,-56,0
study,9753,7,35.57358699,129.1877737,301.0,0.05327099,0.29628247,9.820416,0.0051931604,-0.0039947387,-0.00079894776,29.07250562963928,149.0,7567.700476161213,3156.37762920668,1008.6021287591208,640.4989018193639,287.42860907232955,342.1638052537713,287.2406162336549,343.3671891081127,317.7326535787576,666.7468322687768,55,-538,3,2,0,1,10,6,11,21,4,14,-53,-53,-53,-53,-53,-54,-54,-54,-55,-56,0
study,9758,7,35.57358699,129.1877737,328.0,0.05327099,0.29628247,9.820416,0.0049268445,-0.0041278964,-0.0054594763,35.08036055263076,1350.0,7283.5326700199,2295.341556499526,1271.1268827250906,772.2601563223499,358.68675579146435,463.8366393458359,402.3465000559464,226.5253181183763,307.64178302762383,437.6513109335596,55,-538,3,2,0,1,10,6,11,21,4,14,-53,-53,-53,-53,-53,-54,-54,-54,-55,-56,0
study,9763,7,35.5735853,129.18781213,327.0,0.05267244,0.29508537,9.818622,0.0046605286,-0.0041278964,0.0022636852,29.1689671254572,108.0,6907.457879485808,3757.228300479397,1406.7666109084514,373.79034577915206,206.1321589896828,259.920318683683,174.6620134872443,157.39143322356102,197.653511909278,205.50477279507055,55,-538,3,2,0,1,10,6,11,21,4,14,-53,-53,-53,-53,-53,-54,-54,-54,-55,-56,0
study,9768,7,35.57350605,129.18791415,314.0,0.051475335,0.29149407,9.816227,0.005992108,-0.0037284228,0.00039947388,28.705960784594787,107.0,6068.26655937658,3472.1721565364373,1328.8871931806343,585.6740808813297,340.2637324401901,242.0948206278624,199.69723205773343,145.01662340601237,164.0684434392983,141.04359210075293,55,-538,3,2,0,1,10,6,11,21,4,14,-53,-53,-53,-53,-53,-54,-54,-54,-55,-56,0
study,9773,7,35.57350605,129.18791415,303.0,0.050876785,0.29867667,9.820416,0.0046605286,-0.0035952649,-0.00066578976,36.217564658473485,202.0,22877.83610387079,15642.30118520106,2118.274109600576,783.5884365271903,333.24553390483976,257.5968286089327,204.5851724066604,211.8468922560129,213.21047781945896,406.0265418188473,55,-538,3,2,0,1,10,6,11,21,4,14,-53,-53,-53,-53,-53,-54,-54,-54,-55,-56,0
study,9778,7,35.57350605,129.18791415,309.0,0.051475335,0.29688102,9.820416,0.0049268445,-0.0035952649,0.0011984216,27.55530324340274,69.0,7765.374597917665,2467.259130752044,1064.5898518401657,380.013589260284,316.6913925277062,233.14261729916504,186.5685518991912,151.9142680160382,202.9935657162569,350.3819134097276,55,-538,3,2,0,1,10,6,11,21,4,14,-53,-53,-53,-53,-53,-54,-54,-54,-55,-56,0
study,9783,7,35.57350605,129.18791415,305.0,0.050876785,0.29867667,9.818622,0.0046605286,-0.0035952649,0.002929475,27.943540128066143,74.0,3659.098879535061,2241.674533612847,1371.6536489374466,468.7938184682554,282.93950935903644,272.63679852416493,182.3962115574768,142.89239293507237,145.8591700403194,163.62601072107137,55,-538,3,2,0,1,10,6,11,21,4,14,-53,-53,-53,-53,-53,-54,-54,-54,-55,-56,0
study,9788,7,35.57349385,129.18799954,317.0,0.05267244,0.29149407,9.815628,0.00585895,-0.0035952649,0.00013315796,33.59642351667236,207.0,10885.31229866691,6568.810928103594,2293.061628899108,990.7143452431616,606.9571242692413,380.70575378258286,338.17624572494174,190.27892760147472,287.9907632778517,339.2950444090387,55,-538,3,2,0,1,10,6,11,21,4,14,-53,-53,-53,-53,-53,-54,-54,-54,-55,-56,0
study,9793,7,35.57346238,129.18806806,314.0,0.05327099,0.29747957,9.820416,0.005060002,-0.0039947387,0.0077231615,29.036778979511453,117.0,7269.27003419356,4794.827181135379,1535.6483314899042,654.8049692828247,471.7608277087722,405.6200564192287,377.7593261038704,385.6057215518424,412.72330918380106,401.7707728344943,55,-538,3,2,0,1,10,6,11,21,4,14,-53,-53,-53,-53,-53,-54,-54,-54,-55,-56,0
study,9798,7,35.57340646,129.18811008,313.0,0.05626374,0.29388827,9.822212,0.0054594763,-0.0043942127,-0.0019973693,29.07072145727749,82.0,3568.540842724877,3752.908805824457,1367.6275591323,445.2360324327374,276.5725589965914,228.64314122589923,255.52478111091557,208.1127223623227,293.1586110604161,413.4836608654172,55,-538,3,2,0,1,10,6,11,21,4,14,-53,-53,-53,-53,-53,-54,-54,-54,-55,-56,0
study,9803,7,35.57334051,129.18813622,313.0,0.055066638,0.29688102,9.814431,0.005725792,-0.0035952649,-0.0019973693,29.005739167985,91.0,8848.87829199127,3999.04620803544,1356.029772401864,557.0746892457894,306.521462300776,242.6261620090424,144.63993124518305,146.76719890750482,123.13649381015944,168.73006537335937,55,-538,3,2,0,1,10,6,11,21,4,14,-53,-53,-53,-53,-53,-54,-54,-54,-55,-56,0
study,9808,7,35.57328846,129.18815135,315.0,0.05327099,0.29867667,9.815628,0.005060002,-0.0041278964,0.0054594763,27.119319164517023,73.0,6765.65019965139,2657.0520947402274,782.7562653489604,470.5525735694313,207.6922591608685,184.79877100171464,172.52491901637555,132.22285821190843,156.91891401443996,208.1490656001513,55,-538,3,2,0,1,10,6,11,21,4,14,-53,-53,-53,-53,-53,-54,-54,-54,-55,-56,0
study,9813,7,35.57326417,129.18820516,315.0,0.053869538,0.29688102,9.816826,0.0054594763,-0.0038615807,-0.002929475,30.66774200837759,110.0,7391.333691077792,3527.9956562871093,1619.9390070818738,438.3184499719584,365.1717264306501,281.6468575006569,246.1358816456973,234.3407820533189,208.70663538899248,262.2245831676382,55,-538,3,2,0,1,10,6,11,21,4,14,-53,-53,-53,-53,-53,-54,-54,-54,-55,-56,0
study,9818,7,35.5732665,129.18827995,315.0,0.05267244,0.29747957,9.820416,0.005725792,-0.0043942127,0.00585895,29.69537851251872,87.0,5743.041384247084,3960.9498520376046,1396.5757827931686,491.66947433378186,364.0557305717678,288.25210557355416,242.2350880009456,190.58239880531104,235.6025835478806,287.9080528953912,55,-538,3,2,0,1,10,6,11,21,4,14,-53,-53,-53,-53,-53,-54,-54,-54,-55,-56,0
study,9823,7,35.57321883,129.18830164,313.0,0.050876785,0.29987377,9.818622,0.005326318,-0.0038615807,0.0011984216,30.158847285654605,100.0,12161.181962923802,4623.420350209349,1833.0340320280256,556.4088203415359,358.7558085344816,233.6634782161944,219.1562547727192,202.50476749006808,274.239931007303,337.11575175952225,55,-538,3,2,0,1,10,6,11,21,4,14,-53,-53,-53,-53,-53,-54,-54,-54,-55,-56,0
study,9828,7,35.57321883,129.18830164,313.0,0.05566519,0.29807812,9.817424,0.0054594763,-0.0035952649,0.0054594763,28.47386896673514,89.0,6704.278903522925,2693.231225798941,1402.6696932781606,424.1434460428429,475.8146048056223,377.10738579690303,333.8792791406154,344.9069410943371,459.6657335227326,723.6146565204423,55,-538,3,2,0,1,10,6,11,21,4,14,-53,-53,-53,-53,-53,-54,-54,-54,-55,-56,0
study,9833,7,35.57321883,129.18830164,314.0,0.05207389,0.29388827,9.825205,0.006657898,-0.0037284228,-0.00079894776,27.392102108116312,78.0,4322.524638989084,3170.8615277840468,1112.4562648063668,362.4251023269741,241.7912769307569,227.6182315291674,158.89371420041817,130.50759130985847,140.1711142462204,182.16410317416089,55,-538,3,2,0,1,10,6,11,21,4,14,-53,-53,-53,-53,-53,-54,-54,-54,-55,-56,0
study,9838,7,35.57320968,129.18839166,319.0,0.054468088,0.29388827,9.821015,0.0051931604,-0.0042610546,-0.00013315796,27.934054513951327,67.0,5520.156547716268,1730.3023815748948,1287.8288550009388,525.4012829632859,269.5828043651662,251.3925959543294,166.10407744142648,149.278862862473,159.50174123482353,193.59943699911844,55,-538,3,2,0,1,10,6,11,21,4,14,-53,-53,-53,-53,-53,-54,-54,-54,-55,-56,0
study,9843,7,35.57320968,129.18839166,319.0,0.049081136,0.29628247,9.81922,0.0054594763,-0.0038615807,0.008522109,28.304431258077773,78.0,2569.2947236923983,3795.532005271723,1334.2910879285073,493.7243634586209,385.467569097312,215.24608192715857,225.77300735034584,180.99681357663545,222.83204704318445,221.0905248384205,50,-543,4,0,1,10,3,2,6,11,5,7,-52,-53,-53,-53,-54,-54,-54,-54,-58,-58,0
study,9849,7,35.57316958,129.18842526,319.0,0.050876785,0.29628247,9.815628,0.005725792,-0.0039947387,0.0015978955,36.48016334504906,708.0,12211.80412884226,4547.3598450713,2615.11943064054,1181.299301860886,616.2355663624037,550.2677586415182,388.639038520494,303.2438045602776,287.25537901845104,400.2776510470797,55,-549,3,4,2,0,6,1,11,10,5,7,-53,-53,-54,-54,-54,-55,-55,-55,-58,-58,0
study,9854,7,35.57320622,129.18841016,325.0,0.05566519,0.2825158,9.818023,0.0051931604,-0.0041278964,0.0,31.717792456077355,112.0,11860.994008993355,3254.123041141188,1662.3701323877972,611.7714477832633,502.7747451248668,461.31786017343984,235.4725724905298,220.5398528726105,172.75786303992166,362.4539200294096,56,-538,0,1,10,11,3,6,2,4,5,21,-50,-51,-51,-52,-55,-55,-56,-56,-56,-56,0
study,9859,7,35.57320622,129.18841016,307.0,0.046088383,0.31783026,9.822212,0.0045273704,-0.0038615807,0.0019973693,27.707988142109905,98.0,6696.346931388522,2364.6992144858714,1310.132872042796,382.33492491954325,338.6526365210954,263.38504121643587,302.823432350001,315.2435272926136,330.5055454550632,398.7793055539081,56,-563,0,1,2,4,11,10,6,13,15,3,-55,-55,-56,-56,-56,-56,-57,-57,-57,-58,0
study,9864,7,35.57323048,129.18838002,311.0,0.051475335,0.31364042,9.81922,0.005992108,-0.0039947387,0.003328949,28.623743289790045,98.0,5033.660421838855,2543.74972435592,1226.5165882098315,319.6845105681789,316.1728368317328,204.2903374637891,221.9115892682321,203.0775289163004,261.4927456761906,365.6554018952785,56,-563,0,1,2,4,11,10,6,13,15,3,-55,-55,-56,-56,-56,-56,-57,-57,-57,-58,0
study,9869,7,35.57323048,129.18838002,312.0,0.051475335,0.31364042,9.816826,0.00585895,-0.003462107,-0.0018642114,42.94195445840298,2526.0,14837.14599905364,9926.139990481064,3055.89197003718,1266.1199834109234,504.00558739053895,533.7662478309201,441.6388371454185,291.01257399303086,318.82774033763445,469.8035491191102,56,-563,0,1,2,4,11,10,6,13,15,3,-55,-55,-56,-56,-56,-56,-57,-57,-57,-58,0
study,9874,7,35.57323048,129.18838002,331.0,0.053869538,0.29388827,9.820416,0.00652474,-0.0035952649,-0.0002663159,28.16943367524853,87.0,4649.883314607018,3242.0321926949664,1113.0604148684165,439.70538283778336,358.85501973842935,188.5776518207998,139.54459516793466,137.95936656463556,150.1467849348137,179.04319917072158,56,-563,0,1,2,4,11,10,6,13,15,3,-55,-55,-56,-56,-56,-56,-57,-57,-57,-58,0
study,9879,7,35.57323048,129.18838002,326.0,0.05207389,0.29029694,9.815628,0.0022636852,-0.0047936863,0.002663159,27.769793131915648,77.0,4171.752141573035,3150.836485897189,1395.741201952156,525.8477360107889,537.2543308954106,233.94323679771355,251.16082850035835,153.6227809983234,168.06955436235324,196.537903195988,56,-563,0,1,2,4,11,10,6,13,15,3,-55,-55,-56,-56,-56,-56,-57,-57,-57,-58,0
study,9884,7,35.57323048,129.18838002,329.0,0.048482586,0.29568392,9.8198185,0.005060002,-0.0041278964,0.0037284228,37.02794488676592,328.0,6883.574319053096,3573.0430253254845,3016.3579739075103,1219.7039099246338,1041.95941151804,908.1472585348212,1286.6227831741598,395.4130254299384,302.25157196291974,428.45494104249775,56,-563,0,1,2,4,11,10,6,13,15,3,-55,-55,-56,-56,-56,-56,-57,-57,-57,-58,0
study,9889,7,35.57321726,129.18841395,329.0,0.05327099,0.29747957,9.822811,0.0047936863,-0.0041278964,0.0037284228,29.21542782066001,96.0,4460.324671044684,3038.57736156987,1145.4215420096043,507.69611558059137,323.2000972347212,246.63842914216767,226.45367620556885,177.5361369817482,216.069065513774,383.2087616837776,56,-563,0,1,2,4,11,10,6,13,15,3,-55,-55,-56,-56,-56,-56,-57,-57,-57,-58,0
study,9894,7,35.57318963,129.18845165,298.0,0.048482586,0.31304187,9.818023,0.0051931604,-0.0037284228,0.0046605286,26.746243604601226,63.0,3366.224100633799,3533.7134555412517,1310.359239525877,545.3556742614059,324.1091644379126,179.39449356874775,157.03673987613584,128.53538929276,146.65379109510363,201.5963266909959,56,-563,0,1,2,4,11,10,6,13,15,3,-55,-55,-56,-56,-56,-56,-57,-57,-57,-58,0
study,9899,7,35.57318963,129.18845165,298.0,0.050278235,0.31184477,9.820416,0.0051931604,-0.0037284228,0.0021305273,28.810268732897605,92.0,8195.959100846865,3661.7037461915047,1353.457728023826,425.8050644485712,176.42393218700082,162.97304642592871,177.79202825504845,137.41790284800337,142.63101085750802,172.90292130674712,56,-563,0,1,2,4,11,10,6,13,15,3,-55,-55,-56,-56,-56,-56,-57,-57,-57,-58,0
study,9904,7,35.57318963,129.18845165,300.0,0.047884032,0.31004912,9.818023,0.005060002,-0.0042610546,0.0037284228,29.10363813390644,93.0,7337.763277530083,4503.949260953696,927.9318128827156,693.0349369514856,329.19763784209096,229.352888980678,196.7963457501521,198.05080491760705,172.98844153633942,246.46319624003357,56,-563,0,1,2,4,11,10,6,13,15,3,-55,-55,-56,-56,-56,-56,-57,-57,-57,-58,0
study,9909,7,35.57318963,129.18845165,298.0,0.050278235,0.31184477,9.818023,0.0051931604,-0.0042610546,0.002796317,28.1523836024088,70.0,8135.330806950457,2994.9507985089067,1066.117982478032,607.9987035543234,359.8995671588009,231.2330759279972,215.99546324593732,169.44348577682194,172.5644293358404,226.1336425030031,56,-563,0,1,2,4,11,10,6,13,15,3,-55,-55,-56,-56,-56,-56,-57,-57,-57,-58,0
study,9914,7,35.5731676,129.18848248,311.0,0.051475335,0.30885202,9.818023,0.005592634,-0.0039947387,-0.0014647375,28.448372604078944,89.0,2660.0353692654685,4401.698393004416,2219.0296918817785,844.9205103792266,462.6152130319236,312.54808130511066,295.5661621817183,268.26185425687737,281.23435536834296,397.44648412727537,56,-563,0,1,2,4,11,10,6,13,15,3,-55,-55,-56,-56,-56,-56,-57,-57,-57,-58,0
study,9919,7,35.5731676,129.18848248,309.0,0.046686932,0.31244332,9.822212,0.0049268445,-0.0039947387,0.0009321057,37.09382318168584,429.0,6462.094054569639,9534.695473664944,6781.489330925864,9426.093194544334,6359.327347339197,6351.160700061565,3141.239579063907,1538.3519455552264,1481.512211017509,2083.661338362143,56,-563,0,1,2,4,11,10,6,13,15,3,-55,-55,-56,-56,-56,-56,-57,-57,-57,-58,0
study,9924,7,35.5731676,129.18848248,308.0,0.050876785,0.30705637,9.828796,0.0018642114,-0.0037284228,0.0018642114,29.279001485939048,103.0,9813.739288756044,3833.054663766196,1268.747500257702,526.4948631447181,338.6222479753899,217.86507711840923,224.29232444014795,168.03037830213154,175.67831438601254,178.46574504634071,56,-563,0,1,2,4,11,10,6,13,15,3,-55,-55,-56,-56,-56,-56,-57,-57,-57,-58,0
study,9929,7,35.57313647,129.18852765,315.0,0.050278235,0.29448682,9.821614,0.0047936863,-0.0037284228,0.005326318,29.899317706967903,100.0,4306.694503637847,5342.977746024654,3042.627345248972,1001.8074536674072,485.3871317222872,199.11884174005635,218.692435566538,156.5674411995632,172.4612360160883,272.548238310745,56,-563,0,1,2,4,11,10,6,13,15,3,-55,-55,-56,-56,-56,-56,-57,-57,-57,-58,0
study,9934,7,35.57313647,129.18852765,312.0,0.05267244,0.30107087,9.818023,0.0051931604,-0.003462107,-0.002663159,29.08408566602973,85.0,5922.659910878017,1298.373069309411,1340.3018871787924,463.8059642756117,294.0503483450932,192.0245582278147,234.49742432776685,198.6387740030024,223.01074547899373,230.70419321929975,56,-563,0,1,2,4,11,10,6,13,15,3,-55,-55,-56,-56,-56,-56,-57,-57,-57,-58,0
study,9939,7,35.57313647,129.18852765,308.0,0.04309563,0.29867667,9.816826,0.0051931604,-0.0039947387,-0.005060002,27.540653575108,71.0,7904.95118587266,2305.17310965108,777.6350106017403,561.3812524896977,205.86353221856203,229.16789416795936,181.74008499494244,136.9394391438147,145.01722681790744,154.14512499912425,56,-563,0,1,2,4,11,10,6,13,15,3,-55,-55,-56,-56,-56,-56,-57,-57,-57,-58,0
study,9944,7,35.57313647,129.18852765,293.0,0.05207389,0.31543607,9.818023,0.0051931604,-0.0042610546,0.00066578976,36.54510762043569,461.0,8879.76090513609,3616.885149216259,1645.3918574799925,541.7550779520348,498.7090663579343,1206.2330792017378,1235.2097709494456,1058.8800231643645,1222.2950859350567,2596.462351973694,56,-563,0,1,2,4,11,10,6,13,15,3,-55,-55,-56,-56,-56,-56,-57,-57,-57,-58,0
study,9949,7,35.57313647,129.18852765,320.0,0.049081136,0.31124622,9.822212,0.005592634,-0.003195791,0.0039947387,34.30443513461569,174.0,1307.663175966928,3323.995248930337,1182.249872740044,548.1478902681492,478.3063217738769,428.1267119568937,441.3175347173319,455.8622075436812,736.9478956330674,1120.731551456321,56,-563,0,1,2,4,11,10,6,13,15,3,-55,-55,-56,-56,-56,-56,-57,-57,-57,-58,0
study,9954,7,35.57313647,129.18852765,331.0,0.055066638,0.28191724,9.81922,0.0047936863,-0.0035952649,0.0038615807,29.721378532554866,99.0,7642.24676380072,1457.8830569628235,1380.9423914664603,538.969226114105,310.45840474654887,180.01489325166017,199.74799028266784,182.99716549455928,156.72676789270906,265.6676404731488,56,-563,0,1,2,4,11,10,6,13,15,3,-55,-55,-56,-56,-56,-56,-57,-57,-57,-58,0
study,9959,7,35.57313647,129.18852765,299.0,0.048482586,0.30286652,9.81922,0.0046605286,-0.0038615807,-0.0015978955,30.993373985003064,107.0,5225.873500623693,2461.722603696688,1332.0541909192643,787.3689944000475,384.5532373430133,238.3314813615592,259.8811341430393,164.1265800722429,179.682045734457,173.29643822996914,56,-563,0,1,2,4,11,10,6,13,15,3,-55,-55,-56,-56,-56,-56,-57,-57,-57,-58,0
study,9964,7,35.57313647,129.18852765,299.0,0.05327099,0.29987377,9.820416,0.0054594763,-0.0038615807,0.0011984216,38.73420061739565,869.0,6470.323364995114,2816.2099330393994,1604.6199538099545,713.9055958553774,484.2753979491151,432.9076443818114,442.170451718733,335.20315644149235,876.3166614044785,3177.5527368149046,54,-549,3,2,4,6,13,15,12,0,1,11,-54,-54,-54,-54,-55,-55,-55,-56,-56,-56,0
study,9969,7,35.57313647,129.18852765,300.0,0.050876785,0.29209262,9.81922,0.0054594763,-0.0037284228,-0.0010652636,32.284770537069946,135.0,12390.62723003218,4532.974627220397,1204.781629539002,558.0796108016673,374.4551597050772,328.2740336022234,267.7331240009205,189.95211075536056,179.77388905502832,297.6375414603,60,-544,3,2,6,4,10,13,0,1,11,15,-52,-52,-52,-54,-55,-55,-56,-56,-56,-56,0
study,9974,7,35.57313647,129.18852765,325.0,0.046088383,0.30825347,9.812635,0.005060002,-0.0041278964,0.0014647375,35.74272453913522,195.0,8244.258363233786,8666.440859358228,4404.08581178488,877.9300203768727,616.1409365574601,574.9524302357156,576.8768041283298,474.4590433725352,517.6595336920466,860.6293652042154,64,-555,3,0,5,7,9,2,4,6,1,11,-55,-55,-55,-55,-55,-56,-56,-56,-56,-56,0
study,9979,7,35.57310575,129.18855947,320.0,0.048482586,0.30765492,9.815628,0.005725792,-0.003328949,0.0037284228,29.85426348771799,96.0,6784.831162818015,2933.4622355582237,1438.024370747774,474.011782242602,204.4189494291306,172.13708903999145,194.01340312736963,156.0671320287191,161.97080458625612,171.48360784890394,61,-551,0,2,4,6,11,10,9,3,5,7,-53,-55,-55,-55,-55,-55,-55,-56,-56,-56,0
study,9984,7,35.57310575,129.18855947,319.0,0.05267244,0.30526072,9.812037,0.003328949,-0.003328949,-0.0039947387,28.102178866009037,87.0,9520.928701404402,3880.674344754986,1583.8646978965469,461.8206684150948,234.80920459772344,189.18015997564984,169.63114628544182,150.62937685585774,152.97366626261,202.36183266232933,61,-551,0,2,4,6,11,10,9,3,5,7,-53,-55,-55,-55,-55,-55,-55,-56,-56,-56,0
