category,sec,week,latitude,longitude,lux,accelx,accely,accelz,gyroX,gyroY,gyroZ,decibel,peak,mag1,mag2,mag3,mag4,mag5,mag6,mag7,mag8,mag9,mag0,bssidcnt,rssisum,idx1,idx2,idx3,idx4,idx5,idx6,idx7,idx8,idx9,idx0,rssi1,rssi2,rssi3,rssi4,rssi5,rssi6,rssi7,rssi8,rssi9,rssi0,inclass
study,76009,7,35.57438905,129.18945879,392.0,0.0,0.0,0.0,0.00039947388,-0.00079894776,-0.00079894776,36.46329564607527,173.0,11642.689853593727,7547.61702576497,1333.7870484567818,920.3284596335476,729.5120202778472,296.8709860894725,330.8714335201931,237.49832414512085,350.355141482234,247.8524151129239,62,-560,0,1,2,3,4,5,6,7,8,9,-51,-52,-52,-52,-56,-57,-58,-58,-61,-63,0
study,76015,7,35.57438905,129.18945879,392.0,0.0,0.0,0.0,0.00013315796,-0.0010652636,-0.0019973693,34.9344879251193,151.0,18950.837871229607,3067.498632113592,2632.01071444031,1390.8111372687854,1131.8966051346035,654.8649460214186,563.5770589462238,359.1198160799171,287.33389437851866,302.8539739734504,53,-590,8,10,7,5,11,4,12,6,13,14,-57,-58,-58,-58,-59,-59,-59,-59,-61,-62,0
study,76020,7,35.57438905,129.18945879,390.0,0.0,0.0,0.0,0.00066578976,-0.0010652636,0.0035952649,36.04574550197705,190.0,9305.29656065232,6368.946761853934,2411.2595661092764,1266.8777931906277,590.4864943205489,547.4391823013498,335.99950404752093,226.2985773662872,217.60507797408488,379.9464595058697,63,-578,0,2,1,3,6,7,11,13,4,8,-56,-56,-57,-57,-58,-58,-59,-59,-59,-59,0
study,76025,7,35.57438905,129.18945879,388.0,0.0,0.0,0.0,0.0005326318,-0.0010652636,0.0030626329,36.38503909243479,266.0,11472.401698931151,6011.4006385854445,3384.2047371193366,1166.261691257598,573.3170585516175,413.0639363357356,324.3562206692126,221.57330845881728,282.9619302207773,267.62160303814835,60,-568,0,1,2,3,4,12,7,11,13,5,-55,-56,-56,-56,-57,-57,-57,-58,-58,-58,0
study,76030,7,35.57366582,129.18788477,388.0,0.0,0.0,0.0,0.00039947388,-0.0010652636,0.0013315795,38.27645851941396,300.0,11188.569716920392,6347.719796212144,1978.848945465851,1099.078999661671,630.1795300159948,537.9377343066463,666.7266586666024,712.3537773489842,487.59426059339705,875.2726208108438,60,-568,0,1,2,3,4,12,7,11,13,5,-55,-56,-56,-56,-57,-57,-57,-58,-58,-58,0
study,76035,7,35.57366582,129.18788477,388.0,0.0,0.0,0.0,0.00079894776,-0.0005326318,0.0018642114,41.64440998168167,385.0,17415.473733891737,6908.121769263135,1872.4554912601827,793.8505087021335,611.0300470451998,433.5880142279093,269.89806798724726,285.846516598818,414.547613479944,866.2554352670113,60,-568,0,1,2,3,4,12,7,11,13,5,-55,-56,-56,-56,-57,-57,-57,-58,-58,-58,0
study,76040,7,35.57366582,129.18788477,388.0,0.0,0.0,0.0,0.0014647375,-0.0011984216,-0.0039947387,40.2451028014378,300.0,17155.47187249433,10203.978039146396,2835.987032320601,1845.606002047188,1511.7999921225246,752.0231040622577,515.1213782577321,411.0853221732516,276.0335122209528,389.11995326089306,60,-568,0,1,2,3,4,12,7,11,13,5,-55,-56,-56,-56,-57,-57,-57,-58,-58,-58,0
study,76045,7,35.57366582,129.18788477,396.0,0.0,0.0,0.0,0.0019973693,-0.00066578976,-0.0013315795,40.69334983142201,272.0,17621.948252094717,10270.582785846063,4434.972991248835,2611.1949809687785,1350.477038554484,1014.225958494023,794.6126544535593,572.3244368709942,435.4222159243376,411.66420477471047,60,-568,0,1,2,3,4,12,7,11,13,5,-55,-56,-56,-56,-57,-57,-57,-58,-58,-58,0
study,76050,7,35.57366582,129.18788477,342.0,0.0,0.0,0.0,0.0009321057,-0.00066578976,-0.0011984216,38.71605997070863,255.0,20307.821706851348,5423.928143617826,2930.8382161199843,1629.9118634544102,1075.7530144819705,780.435530729158,499.8430124664284,435.4511783245032,811.7060269827756,1344.1638309910209,60,-568,0,1,2,3,4,12,7,11,13,5,-55,-56,-56,-56,-57,-57,-57,-58,-58,-58,0
study,76055,7,35.57366582,129.18788477,430.0,0.0,0.0,0.0,0.0009321057,-0.0013315795,-0.0017310535,40.179287794245326,241.0,17213.305698166936,11875.23874077151,4376.015093796357,2488.911962512875,2406.2792184189248,1219.43322292754,944.9694571178384,745.7123815677576,562.4262237814045,763.2149165054519,60,-568,0,1,2,3,4,12,7,11,13,5,-55,-56,-56,-56,-57,-57,-57,-58,-58,-58,0
study,76060,7,35.57369392,129.18779126,438.0,0.0,0.0,0.0,0.00013315796,-0.0009321057,0.002663159,39.604068402556784,291.0,18003.036848847005,7573.491089681112,3784.740307043483,2404.710812710013,1131.723028088535,563.9828188932457,445.9144307359825,432.2179811981185,476.81817372973904,945.6936242787532,60,-568,0,1,2,3,4,12,7,11,13,5,-55,-56,-56,-56,-57,-57,-57,-58,-58,-58,0
study,76065,7,35.57369392,129.18779126,420.0,0.0,0.0,0.0,0.0009321057,-0.0011984216,0.002663159,37.670183251759454,240.0,8710.730301926325,5886.940338083774,2944.955197812012,1352.8859699058494,962.3218544944432,512.8724954651119,329.2288360771591,281.70345144586975,314.06900206410216,795.2503335339286,60,-568,0,1,2,3,4,12,7,11,13,5,-55,-56,-56,-56,-57,-57,-57,-58,-58,-58,0
study,76070,7,35.57369392,129.18779126,416.0,0.0,0.0,0.0,-0.0010652636,-0.00079894776,-0.0043942127,38.99189853690139,250.0,11844.21541361096,5738.6654284424285,2036.8518546406824,873.7378716156098,678.2594558669725,316.6894922695424,320.6662156459892,284.1354950518977,168.99791303877458,302.1955728673012,60,-568,0,1,2,3,4,12,7,11,13,5,-55,-56,-56,-56,-57,-57,-57,-58,-58,-58,0
study,76075,7,35.57337606,129.18774571,410.0,0.0,0.0,0.0,0.0015978955,-0.0011984216,-0.002530001,38.53445348924519,225.0,13342.103539251651,3837.459414333801,2199.27630966088,611.9422326942035,763.8011874043904,341.54209015272085,238.0150871184958,190.5341262606497,173.99066905011225,232.02270700971135,60,-568,0,1,2,3,4,12,7,11,13,5,-55,-56,-56,-56,-57,-57,-57,-58,-58,-58,0
study,76080,7,35.57337606,129.18774571,426.0,0.0,0.0,0.0,0.0010652636,-0.0005326318,0.0013315795,39.27948457039983,251.0,19517.657614562104,9735.520580833432,2724.853745471938,633.2456603562457,785.2762742794777,427.6112927203237,276.6247458704349,228.7611151763673,366.9701535141284,416.34795788193577,60,-568,0,1,2,3,4,12,7,11,13,5,-55,-56,-56,-56,-57,-57,-57,-58,-58,-58,0
study,76085,7,35.57337606,129.18774571,414.0,0.0,0.0,0.0,0.0010652636,-0.0005326318,-0.0002663159,38.88005627330824,189.0,10156.747482562423,9174.243472893915,3023.886727878389,1632.200582923674,915.200907764282,558.4918702099235,399.1446426364028,312.91965570703087,255.47615858411345,257.9382777457074,60,-568,0,1,2,3,4,12,7,11,13,5,-55,-56,-56,-56,-57,-57,-57,-58,-58,-58,0
study,76090,7,35.57337606,129.18774571,408.0,0.0,0.0,0.0,0.0002663159,-0.00066578976,0.0023968432,40.02509041018496,264.0,7018.623204813347,7490.987293639734,2420.421980086854,1179.031980228654,949.1151933521472,430.9695398846475,364.8836530025957,336.6620637947423,342.57361734239174,419.8946824531752,60,-568,0,1,2,3,4,12,7,11,13,5,-55,-56,-56,-56,-57,-57,-57,-58,-58,-58,0
study,76095,7,35.57337606,129.18774571,418.0,0.0,0.0,0.0,0.00013315796,-0.0014647375,-0.0010652636,39.27419589755208,245.0,10202.682453198886,12769.11238138892,4991.658797324944,2232.0315512134225,1554.4428364462883,1218.0822389683576,942.5982562949198,742.4137488962222,517.9674331088183,653.9242702785082,60,-568,0,1,2,3,4,12,7,11,13,5,-55,-56,-56,-56,-57,-57,-57,-58,-58,-58,0
study,76100,7,35.57337606,129.18774571,434.0,0.0,0.0,0.0,0.0010652636,-0.0013315795,0.0043942127,42.83191083501397,392.0,19700.593477838585,9080.675764747244,3976.2292811384714,1640.2384836670208,1370.5993387151902,800.0484333107111,670.3234085995394,436.8874376298418,379.6123667384536,411.6639672818108,60,-568,0,1,2,3,4,12,7,11,13,5,-55,-56,-56,-56,-57,-57,-57,-58,-58,-58,0
study,76105,7,35.57337606,129.18774571,420.0,0.0,0.0,0.0,0.0009321057,-0.0010652636,-0.002929475,41.70601963586066,392.0,12696.855481907682,5199.266209867627,2041.842118653024,996.838136878528,658.7409363582987,423.04925009282414,349.33101267477525,281.4171077156995,305.4074064745772,553.7610973673915,60,-568,0,1,2,3,4,12,7,11,13,5,-55,-56,-56,-56,-57,-57,-57,-58,-58,-58,0
study,76110,7,35.57337606,129.18774571,404.0,0.0,0.0,0.0,0.00013315796,-0.0011984216,-0.0061252657,45.001289312905584,1827.0,17824.352547784438,10824.701367408645,4024.361464561941,2406.836364219703,1797.9192408869496,728.5987231302562,1228.766418886626,1003.1635116570974,1142.163696181586,4762.6505818234455,60,-568,0,1,2,3,4,12,7,11,13,5,-55,-56,-56,-56,-57,-57,-57,-58,-58,-58,0
study,76115,7,35.57337606,129.18774571,400.0,0.0,0.0,0.0,0.0010652636,-0.0015978955,-0.0038615807,41.62911710802887,777.0,7359.792768260151,8848.74800402141,1665.3513784648178,918.5676488375792,1012.4833687078412,430.1776129341246,469.8921762769849,319.8709388284884,280.8120088232882,341.66025938332723,60,-568,0,1,2,3,4,12,7,11,13,5,-55,-56,-56,-56,-57,-57,-57,-58,-58,-58,0
study,76120,7,35.57337606,129.18774571,398.0,0.0,0.0,0.0,0.0018642114,-0.0013315795,-0.0014647375,40.98058162599113,392.0,12948.688589583771,6434.579976217756,4074.61675053794,3012.1283000378085,2122.333860925464,2008.9921220636409,1810.1200566834375,2293.910867582313,2168.629338960396,2353.409530772518,60,-568,0,1,2,3,4,12,7,11,13,5,-55,-56,-56,-56,-57,-57,-57,-58,-58,-58,0
study,76125,7,35.57337606,129.18774571,412.0,0.0,0.0,0.0,0.00013315796,-0.0011984216,0.002796317,41.62545846376478,660.0,16672.6157402804,4794.532944209331,2442.309953429902,1089.9236301927358,860.8164949549708,707.0423618599722,720.3391021935194,741.3067007504777,854.1399472732408,1445.3189127732517,60,-568,0,1,2,3,4,12,7,11,13,5,-55,-56,-56,-56,-57,-57,-57,-58,-58,-58,0
study,76130,7,35.57337606,129.18774571,408.0,0.0,0.0,0.0,0.00066578976,-0.0011984216,0.0021305273,40.16810073552407,318.0,6581.136619994844,9677.871242862817,2795.7794813309088,1296.7435045036416,772.118031642848,598.7423238504081,410.2633097491964,338.0341613246612,283.13287014730133,522.9752977978125,59,-572,4,6,7,5,9,15,1,2,3,16,-55,-55,-56,-56,-57,-58,-58,-58,-58,-61,0
study,76135,7,35.57337606,129.18774571,408.0,0.0,0.0,0.0,0.0009321057,-0.0015978955,0.0054594763,39.60568158605777,284.0,3311.204387550403,6966.068605014814,2942.7455976741094,1169.6136713519477,914.1961590204636,416.31333805243554,369.9808726728385,318.1935220721997,279.9401330961815,256.4776427836913,48,-594,6,7,4,5,9,15,17,18,16,14,-56,-57,-58,-58,-58,-59,-59,-63,-63,-63,0
study,76140,7,35.57337606,129.18774571,406.0,0.0,0.0,0.0,0.0005326318,-0.0017310535,0.0042610546,42.023105534739614,282.0,10689.036161683358,6983.11917164142,2298.7610151423733,810.1305935319091,581.3229520871517,491.0339888713539,180.07657555340035,176.31654600732423,202.68010038070625,230.61827025263716,61,-577,4,5,7,15,6,0,2,3,9,19,-53,-56,-57,-58,-58,-58,-58,-58,-60,-61,0
study,76145,7,35.57337606,129.18774571,398.0,0.0,0.0,0.0,0.0011984216,-0.0014647375,0.0014647375,41.49343476338767,481.0,4356.013377769936,6183.762070513127,3025.1427580327736,1283.152498280227,815.6470955219396,764.0279064902132,524.7175028695294,354.5120205531884,284.9129178970044,335.1751339236071,54,-599,4,6,5,0,3,7,2,1,19,18,-58,-58,-58,-59,-59,-60,-60,-62,-62,-63,0
study,76150,7,35.57337606,129.18774571,404.0,0.0,0.0,0.0,0.0009321057,-0.0009321057,0.0002663159,38.30901894785295,295.0,13279.28580725471,6493.195926822057,2023.0792498116523,825.4051515482953,692.320921462593,381.5182593546801,251.0792733562444,238.4655924660368,211.14114144239247,451.97930440800906,54,-599,4,6,5,0,3,7,2,1,19,18,-58,-58,-58,-59,-59,-60,-60,-62,-62,-63,0
study,76155,7,35.57337606,129.18774571,404.0,0.0,0.0,0.0,0.00079894776,-0.0017310535,0.0047936863,40.99866199041597,318.0,15986.75700739424,9757.066607282806,2351.3738397863403,1566.228998786885,959.9487288110688,647.5713529913381,376.6577100715167,370.8295803765226,429.4567195019406,1053.099829836298,54,-599,4,6,5,0,3,7,2,1,19,18,-58,-58,-58,-59,-59,-60,-60,-62,-62,-63,0
study,76160,7,35.57349122,129.18772522,412.0,0.0,0.0,0.0,0.00079894776,-0.0011984216,-0.00013315796,40.26520371579272,664.0,6980.330334648866,5767.545267761021,2088.604029367571,1184.9085545132084,831.2647456909921,462.6271292328844,557.1043183882578,294.34204824169217,400.7822374784358,428.8301159468767,54,-599,4,6,5,0,3,7,2,1,19,18,-58,-58,-58,-59,-59,-60,-60,-62,-62,-63,0
study,76166,7,35.57349122,129.18772522,430.0,0.0,0.0,0.0,-0.0005326318,-0.0013315795,0.0049268445,40.40655276857408,570.0,2644.91024439634,6908.119567128761,3737.294601344547,1348.746905945055,1165.0507993580811,662.5131168822902,692.5539077834785,954.6044915432756,1246.7078483318426,2530.8497462554133,54,-599,4,6,5,0,3,7,2,1,19,18,-58,-58,-58,-59,-59,-60,-60,-62,-62,-63,0
study,76171,7,35.5735851,129.18765731,432.0,0.0,0.0,0.0,0.0015978955,-0.0009321057,0.003462107,40.873880119534256,357.0,11861.676643004495,3965.999543559751,2333.9120301600447,1260.5023702864935,753.6486227197856,354.9802622877122,405.795364742926,381.5594281652469,279.46475884404066,779.559582319326,54,-599,4,6,5,0,3,7,2,1,19,18,-58,-58,-58,-59,-59,-60,-60,-62,-62,-63,0
study,76176,7,35.5735851,129.18765731,420.0,0.0,0.0,0.0,0.00066578976,-0.0015978955,-0.0010652636,39.23866139399975,220.0,15732.490334292132,6065.142714168306,2344.701623658695,1096.674212585977,877.2918768213949,554.0779114376004,363.46107621773126,327.3424874727607,446.1506596378133,733.700057079742,54,-599,4,6,5,0,3,7,2,1,19,18,-58,-58,-58,-59,-59,-60,-60,-62,-62,-63,0
study,76181,7,35.57361635,129.18761218,416.0,0.0,0.0,0.0,0.0005326318,-0.0013315795,0.0018642114,37.08218031310246,237.0,13484.87869298287,5488.177914575537,2141.5594976687485,723.4825452774603,601.1793247956622,261.8446893775495,234.56504063558543,280.72286682155993,326.5843259055281,508.898280716471,54,-599,4,6,5,0,3,7,2,1,19,18,-58,-58,-58,-59,-59,-60,-60,-62,-62,-63,0
study,76186,7,35.5736699,129.18751445,408.0,0.0,0.0,0.0,-0.0011984216,-0.0014647375,0.0013315795,39.42500869265119,261.0,8482.024447347188,6088.17495282498,2242.760376726992,1239.780238691973,758.4812416264571,508.0718824613537,381.7254294567336,296.5895329468991,294.3503028960168,430.5957145573046,54,-599,4,6,5,0,3,7,2,1,19,18,-58,-58,-58,-59,-59,-60,-60,-62,-62,-63,0
study,76191,7,35.57372565,129.18737241,398.0,0.0,0.0,0.0,0.0017310535,-0.0018642114,-0.008255793,40.460941297370745,257.0,15930.289823855492,9201.864883375503,3710.226890385998,1283.3702226041169,815.7572371610833,351.49003547774424,305.8901277247531,259.4467160092781,249.9376083638988,679.5154888382333,54,-599,4,6,5,0,3,7,2,1,19,18,-58,-58,-58,-59,-59,-60,-60,-62,-62,-63,0
study,76196,7,35.57377366,129.18729481,404.0,0.0,0.0,0.0,0.00013315796,-0.0009321057,-0.0010652636,40.744679404977006,236.0,21646.14230798417,11732.322891068205,3451.570311221824,1400.0068208332518,1124.841422261458,728.3373288487468,511.8832972609678,323.913012926924,334.94920305233813,335.8988044393571,54,-599,4,6,5,0,3,7,2,1,19,18,-58,-58,-58,-59,-59,-60,-60,-62,-62,-63,0
study,76201,7,35.57373547,129.18735098,414.0,0.0,0.0,0.0,0.0011984216,-0.0009321057,0.003195791,37.64346787960461,504.0,15042.004716623298,9716.388243480276,2322.3964480729164,1102.3808828296728,1137.6753596803917,687.3122724400413,483.802366338364,329.50467754135354,350.6920421377813,425.2986973790844,54,-599,4,6,5,0,3,7,2,1,19,18,-58,-58,-58,-59,-59,-60,-60,-62,-62,-63,0
study,76206,7,35.57372951,129.18744292,412.0,0.0,0.0,0.0,0.00066578976,-0.0010652636,-0.0015978955,37.00017831873582,254.0,21904.32158645004,10918.662324279878,1384.4747833898043,874.5821568103137,666.2688488411724,295.6504071995795,197.25012073752612,180.4029525769344,149.77119415436042,190.5356151749334,54,-599,4,6,5,0,3,7,2,1,19,18,-58,-58,-58,-59,-59,-60,-60,-62,-62,-63,0
study,76211,7,35.57374596,129.18749326,400.0,0.0,0.0,0.0,0.003462107,-0.0011984216,0.002663159,38.06046641077672,224.0,11322.368517982068,6532.037099235056,1576.684127907863,888.0489583269879,616.9800091938386,379.7893964262049,224.74141429535737,165.47796762478964,147.26584294092004,369.67390420280447,54,-599,4,6,5,0,3,7,2,1,19,18,-58,-58,-58,-59,-59,-60,-60,-62,-62,-63,0
study,76216,7,35.57374596,129.18749326,414.0,0.0,0.0,0.0,0.00039947388,-0.0013315795,0.0054594763,37.08698733307103,228.0,11093.814201181223,10239.397559192292,2849.4740167931227,1346.1234406430474,1030.964546977137,547.8279862808037,506.4444547214203,368.47916175059066,331.4774107375399,685.0823890300405,54,-599,4,6,5,0,3,7,2,1,19,18,-58,-58,-58,-59,-59,-60,-60,-62,-62,-63,0
study,76221,7,35.57371912,129.1874707,414.0,0.0,0.0,0.0,0.00066578976,-0.0017310535,0.0046605286,38.74251684279932,287.0,11872.710954483937,8676.772989775769,1855.551382632753,567.2031821425416,643.4097025181699,323.3632684517975,185.4961577669588,161.85514130932978,187.7911727838906,495.1404476892894,54,-599,4,6,5,0,3,7,2,1,19,18,-58,-58,-58,-59,-59,-60,-60,-62,-62,-63,0
study,76226,7,35.57346145,129.1875666,418.0,0.0,0.0,0.0,0.0010652636,-0.0010652636,-0.0018642114,42.44026708156336,363.0,13083.71211218896,9463.122726888792,2950.2802454117937,1697.369253526431,1185.4884631390655,813.3967913079478,660.1009441488081,494.1273705145273,379.797673112085,301.6781832681039,54,-599,4,6,5,0,3,7,2,1,19,18,-58,-58,-58,-59,-59,-60,-60,-62,-62,-63,0
study,76231,7,35.57346145,129.1875666,416.0,0.0,0.0,0.0,0.0011984216,-0.0015978955,0.0046605286,39.165058087453474,220.0,15215.6679107719,9276.312185320892,4784.288357907845,2406.038826577225,1685.8037730439537,1096.1158368479191,773.110743723851,625.7312848059122,478.59363947968825,433.4904625096283,54,-599,4,6,5,0,3,7,2,1,19,18,-58,-58,-58,-59,-59,-60,-60,-62,-62,-63,0
study,76236,7,35.57350928,129.18754926,416.0,0.0,0.0,0.0,0.00079894776,-0.00066578976,-0.0010652636,36.68320097058248,178.0,17648.897832889772,5726.814184494663,1965.8043429111567,710.6839231207775,770.4343031514103,395.3998954715841,254.17920802990145,168.85984743233087,199.276875010316,198.72897380824057,54,-599,4,6,5,0,3,7,2,1,19,18,-58,-58,-58,-59,-59,-60,-60,-62,-62,-63,0
study,76241,7,35.57358543,129.18749869,416.0,0.0,0.0,0.0,0.0011984216,-0.0014647375,0.0019973693,39.2410508960384,194.0,15824.49301736064,5851.36601804018,1827.4193537317128,886.6430158809208,667.0135600108002,335.627342087918,249.7392835490824,185.6743121964221,231.6812159255031,287.2034533103075,54,-599,4,6,5,0,3,7,2,1,19,18,-58,-58,-58,-59,-59,-60,-60,-62,-62,-63,0
study,76246,7,35.57363203,129.18749802,410.0,0.0,0.0,0.0,0.0013315795,-0.0011984216,0.005060002,39.57747478458741,212.0,6354.677653001504,3056.2617091958723,2421.6093304478995,742.6067138662256,610.2475921229162,396.3702015574178,225.26221704734544,168.64591611620972,143.71622873336793,196.8131869399309,54,-599,4,6,5,0,3,7,2,1,19,18,-58,-58,-58,-59,-59,-60,-60,-62,-62,-63,0
study,76251,7,35.57363203,129.18749802,396.0,0.0,0.0,0.0,0.0010652636,-0.00079894776,0.0046605286,41.96703962896968,313.0,28162.75602489584,10660.571233376588,5703.705825570711,1827.437090566564,1237.0350916619902,976.9420791611076,695.5166968918124,499.8321362218522,376.69757804448,474.41667386777897,47,-592,1,2,3,0,6,4,5,8,18,16,-54,-54,-54,-57,-61,-61,-62,-63,-63,-63,0
study,76256,7,35.57357365,129.18782351,440.0,0.0,0.0,0.0,0.00066578976,-0.0010652636,-0.00013315796,39.014925594645696,233.0,20348.84256142595,4305.063795840296,2184.8159390975748,1126.016801765952,829.8123252633454,436.6732917012882,330.91638245286936,254.68438945026872,212.3072866511949,378.9694991210644,52,-603,9,12,8,15,1,3,0,11,13,19,-58,-59,-59,-60,-60,-60,-61,-62,-62,-62,0
study,76261,7,35.57360148,129.18779964,441.0,0.0,0.0,0.0,0.00079894776,-0.0014647375,0.006924214,37.55456256950061,201.0,14496.391156403375,7492.723738303549,1388.8030374826803,735.2483906333749,816.4883702890132,360.0502771414542,186.4155947677388,265.6231346140736,228.60733734367943,431.3845485463538,52,-569,1,2,3,6,7,0,4,5,13,9,-55,-55,-55,-56,-56,-56,-57,-57,-60,-62,0
study,76266,7,35.57360148,129.18779964,414.0,0.0,0.0,0.0,0.0009321057,-0.0009321057,-0.0010652636,38.47591420348821,268.0,20927.208284357177,7182.5648237661735,2941.2547927363785,1434.3891572564055,837.9983369331899,702.8374081388322,506.53162238179664,310.2522875577905,294.2393609625767,300.97445872052447,54,-562,1,2,3,0,4,6,5,7,13,12,-50,-50,-50,-53,-59,-59,-59,-60,-61,-61,0
study,76271,7,35.57367415,129.18770838,408.0,0.0,0.0,0.0,0.0014647375,-0.0014647375,-0.0023968432,39.66657635595445,254.0,14368.071404297814,10073.840487330575,2898.754121548121,1429.643345961795,1047.69798920579,839.6266358308059,533.8392699783444,389.7415016816145,347.2944489359371,394.0533906185751,54,-562,1,2,3,0,4,6,5,7,13,12,-50,-50,-50,-53,-59,-59,-59,-60,-61,-61,0
study,76276,7,35.57366125,129.18774584,410.0,0.0,0.0,0.0,0.00079894776,-0.00079894776,0.0022636852,42.21117018638155,332.0,8186.117395919085,11693.893822471808,2134.884065112637,842.5397331680598,511.9668347826462,451.8938927745888,329.91330282040354,338.74514191157897,547.5618975748679,1202.1870699273998,54,-562,1,2,3,0,4,6,5,7,13,12,-50,-50,-50,-53,-59,-59,-59,-60,-61,-61,0
study,76281,7,35.57366125,129.18774584,436.0,0.0,0.0,0.0,0.0019973693,-0.0022636852,-0.0051931604,38.83951605992299,228.0,7235.287520515851,8178.794777017106,2416.3349396665053,1150.0390233724336,682.4014791329915,517.4812824868959,393.4337908267981,269.0081011986719,242.94010506400613,259.6953138883715,54,-562,1,2,3,0,4,6,5,7,13,12,-50,-50,-50,-53,-59,-59,-59,-60,-61,-61,0
study,76286,7,35.57364178,129.18786369,422.0,0.0,0.0,0.0,0.0005326318,-0.0011984216,-0.0010652636,41.31055377120548,277.0,10017.359334693698,8555.909154305888,1748.4951103988255,1057.3354701941375,1111.3189486953477,438.54995326644456,559.8006387581737,521.1613537043745,520.4372981603592,1239.0370859382124,54,-562,1,2,3,0,4,6,5,7,13,12,-50,-50,-50,-53,-59,-59,-59,-60,-61,-61,0
study,76291,7,35.57364178,129.18786369,426.0,0.0,0.0,0.0,0.0009321057,-0.0014647375,0.003462107,37.60826362549474,216.0,16140.955339765736,6003.5134986374815,2581.34506323727,1368.197269923231,1240.6839141671535,718.0280925341788,542.3262747974362,432.63829328472855,359.29586662834976,503.2621557344974,54,-562,1,2,3,0,4,6,5,7,13,12,-50,-50,-50,-53,-59,-59,-59,-60,-61,-61,0
study,76296,7,35.57365452,129.18792464,422.0,0.0,0.0,0.0,0.0009321057,-0.0010652636,-0.0015978955,39.73698577941671,263.0,23611.710792385813,6870.05675369472,2829.035421522977,1676.844675135287,1551.6795481659472,744.4112668029493,403.905942388456,342.2156332998435,289.3605261343226,287.59066097037163,54,-562,1,2,3,0,4,6,5,7,13,12,-50,-50,-50,-53,-59,-59,-59,-60,-61,-61,0
study,76301,7,35.57365452,129.18792464,422.0,0.0,0.0,0.0,0.00039947388,-0.00079894776,0.0019973693,41.08521637945508,261.0,11819.996193633562,7592.454458778683,2123.09831790982,831.9307378224927,689.6514165070579,435.8731874418718,301.5652106135831,211.8282397680033,191.8890553250022,218.44328913816184,54,-562,1,2,3,0,4,6,5,7,13,12,-50,-50,-50,-53,-59,-59,-59,-60,-61,-61,0
study,76306,7,35.57365452,129.18792464,434.0,0.0,0.0,0.0,0.0010652636,-0.0013315795,-0.005725792,36.80246254006527,178.0,3375.2947630428034,7403.249023770436,2365.215942607138,1110.5740170803372,699.5443974974796,447.2248994044199,356.19736130658544,273.2941443839543,224.93649877224743,218.42276614598117,54,-562,1,2,3,0,4,6,5,7,13,12,-50,-50,-50,-53,-59,-59,-59,-60,-61,-61,0
study,76312,7,35.57362502,129.1879119,426.0,0.0,0.0,0.0,0.0011984216,-0.0010652636,-0.0009321057,39.25507037345447,289.0,10426.116389561428,5348.949538037628,1932.807966399108,665.7230367587948,605.892187455676,299.0509403790988,174.13086700150777,237.83658110877064,310.37715535942124,581.2314631513221,54,-562,1,2,3,0,4,6,5,7,13,12,-50,-50,-50,-53,-59,-59,-59,-60,-61,-61,0
study,76317,7,35.57354311,129.18791878,426.0,0.0,0.0,0.0,0.0005326318,-0.0014647375,0.0013315795,37.557959566072505,191.0,7936.639583235972,5963.40400096516,2566.026064518088,862.5137271033686,569.1735118980407,510.11392728964,358.65450953708955,280.5756963007822,190.8219286881265,317.1901428166773,54,-562,1,2,3,0,4,6,5,7,13,12,-50,-50,-50,-53,-59,-59,-59,-60,-61,-61,0
study,76322,7,35.57351876,129.18794769,408.0,0.0,0.0,0.0,0.0009321057,-0.00079894776,-0.00079894776,42.155436142819866,344.0,22438.818147590457,6289.824981565268,4237.253793346428,1532.3597317197116,1144.4408164830645,710.7934640192088,481.8473843088872,429.6979740473196,290.32371130406426,333.59782313732006,54,-562,1,2,3,0,4,6,5,7,13,12,-50,-50,-50,-53,-59,-59,-59,-60,-61,-61,0
study,76327,7,35.57352,129.18806754,428.0,0.0,0.0,0.0,0.0015978955,-0.0015978955,-0.0019973693,38.80433124628429,328.0,8318.485822647413,6601.28189283774,3507.0185410029526,1376.5020268926826,1125.4146723094898,639.7559595568431,786.9744655949555,446.4541815780182,495.2083765203315,795.4593857472755,54,-562,1,2,3,0,4,6,5,7,13,12,-50,-50,-50,-53,-59,-59,-59,-60,-61,-61,0
study,76332,7,35.57352,129.18806754,420.0,0.0,0.0,0.0,0.0011984216,-0.0015978955,0.0015978955,38.186784100431616,316.0,9938.770128424065,4365.375352893853,2228.136697786056,781.933630267905,611.8870227754154,307.67001323400314,286.9828265864408,178.3583877041515,270.6059585592224,754.6051489765948,54,-562,1,2,3,0,4,6,5,7,13,12,-50,-50,-50,-53,-59,-59,-59,-60,-61,-61,0
study,76337,7,35.5735052,129.1881198,438.0,0.0,0.0,0.0,0.0009321057,-0.0014647375,0.0009321057,37.53167955950679,390.0,11089.35224035506,7280.598987151682,799.5986488231397,691.9901395480567,633.0356184125104,318.35435188726257,308.0176829943563,194.4372595494136,174.77489928308398,408.4279657202951,54,-562,1,2,3,0,4,6,5,7,13,12,-50,-50,-50,-53,-59,-59,-59,-60,-61,-61,0
study,76342,7,35.5735052,129.1881198,426.0,0.15622166,0.3226187,9.804854,0.0010652636,-0.0011984216,0.0019973693,39.45136694627495,282.0,24494.18791522885,5963.5193715944415,2291.9638110459227,963.1818015702734,621.5155215319859,389.5330494724819,304.05763627930224,223.03066385212767,165.01960602792778,228.29152409509985,54,-562,1,2,3,0,4,6,5,7,13,12,-50,-50,-50,-53,-59,-59,-59,-60,-61,-61,0
study,76347,7,35.57347565,129.18808206,422.0,0.15622166,0.3226187,9.804854,0.0010652636,-0.0011984216,0.005592634,38.14060271641792,238.0,31552.123988505584,8013.670077624131,2004.7748740913332,1464.2428835938929,963.708100284841,616.6057849477171,363.9254621669103,323.5316592076954,315.4213300237336,500.3020192921183,54,-562,1,2,3,0,4,6,5,7,13,12,-50,-50,-50,-53,-59,-59,-59,-60,-61,-61,0
study,76352,7,35.5735026,129.18804028,418.0,0.15622166,0.3226187,9.804854,0.0015978955,-0.0015978955,0.0018642114,40.347230709461584,246.0,18902.249745853704,6555.5978341642185,3167.6195705297414,986.8972390934792,739.9377620634996,379.1874337599039,336.08810767998347,247.86345230893045,183.00252374668565,240.865330627444,54,-562,1,2,3,0,4,6,5,7,13,12,-50,-50,-50,-53,-59,-59,-59,-60,-61,-61,0
study,76357,7,35.5735223,129.18799231,404.0,0.15622166,0.3226187,9.804854,0.0010652636,-0.0011984216,0.00079894776,35.75478827443797,170.0,9319.311978790942,6667.062980583783,3462.120942300045,1851.9504941375708,887.0221838334173,696.3591091560043,584.5517328318847,323.0576117716766,227.82021516106897,465.0395164262095,54,-562,1,2,3,0,4,6,5,7,13,12,-50,-50,-50,-53,-59,-59,-59,-60,-61,-61,0
study,76362,7,35.57350274,129.18792931,404.0,0.15622166,0.3226187,9.804854,0.0013315795,-0.0019973693,-0.003462107,40.088927605361135,258.0,14770.484786684932,7870.361726196784,3458.184473978349,1598.6705050966068,999.4247023867362,671.352025350962,510.5238876459066,403.6539763156964,370.21778189422525,476.0429137500404,54,-562,1,2,3,0,4,6,5,7,13,12,-50,-50,-50,-53,-59,-59,-59,-60,-61,-61,0
study,76367,7,35.57350274,129.18792931,410.0,0.15622166,0.3226187,9.804854,0.0010652636,-0.0009321057,0.0017310535,36.17430302715445,160.0,10161.773561918046,6552.194800327147,2777.5685225756083,826.8559336855749,721.8524624717134,380.7626279748843,210.2555547133973,241.21038191956123,202.3357319578967,279.30939099357386,54,-562,1,2,3,0,4,6,5,7,13,12,-50,-50,-50,-53,-59,-59,-59,-60,-61,-61,0
study,76372,7,35.57350274,129.18792931,396.0,0.15622166,0.3226187,9.804854,0.00066578976,-0.0013315795,0.0042610546,37.874527650524136,203.0,8020.860790363819,8098.684990518492,3110.9800475950096,731.6512137675858,814.0723292731626,522.6225717306985,297.34870182573087,218.1293354253143,213.4815119372251,245.1059329770572,56,-579,2,1,0,3,20,9,15,17,11,4,-52,-53,-56,-57,-59,-59,-60,-60,-61,-62,0
study,76377,7,35.57342831,129.18797547,400.0,0.15622166,0.3226187,9.804854,0.0010652636,-0.0017310535,0.006258424,39.11711260076543,247.0,23890.96017747491,13525.06292758564,6123.9224909271525,3068.0982283432927,2107.000881547989,1465.0899342930777,1183.672768456432,769.6495548937603,633.8745974457855,579.668316394469,49,-594,3,1,0,2,8,19,18,4,10,6,-54,-55,-55,-57,-60,-62,-62,-63,-63,-63,0
study,76382,7,35.57336607,129.18788009,396.0,0.15622166,0.3226187,9.804854,0.00079894776,-0.0011984216,-0.002530001,39.583044306227634,252.0,11513.807865889828,8966.121173185793,3406.360980519991,1678.395816362221,1087.198798417609,758.2069072148781,711.700914172934,536.1373541824681,484.5513051093705,901.7010825789132,44,-592,1,3,2,0,8,19,11,16,12,10,-52,-53,-55,-56,-61,-63,-63,-63,-63,-63,0
study,76387,7,35.57342014,129.18778526,434.0,0.15622166,0.3226187,9.804854,-0.0023968432,-0.0013315795,-0.002530001,36.844630386196044,204.0,14733.48706666644,6577.846662112325,2765.313824758477,1608.0720740963973,1243.3883634214208,706.0204529339463,641.4704567444948,627.4145287011575,403.725881733462,890.7715660842396,48,-596,1,4,6,7,8,18,11,13,12,10,-49,-54,-56,-56,-62,-63,-64,-64,-64,-64,0
study,76392,7,35.57342014,129.18778526,396.0,0.15622166,0.3226187,9.804854,-0.0013315795,-0.0018642114,0.002530001,38.42827284102982,266.0,24640.59381394377,7489.906793262681,2626.853029130769,1081.8343016955846,714.6949745334265,387.1909294532349,228.49535787433405,218.94785110395668,260.92603900867687,469.85160691677225,48,-596,1,4,6,7,8,18,11,13,12,10,-49,-54,-56,-56,-62,-63,-64,-64,-64,-64,0
study,76397,7,35.57341195,129.18773563,402.0,0.15622166,0.3226187,9.804854,0.0005326318,-0.0017310535,0.002796317,39.977333404045815,239.0,10022.83343284308,7421.284082313747,2028.15729957078,839.9227678707466,434.7626660010714,377.190337552321,359.5872092458655,243.59731693933455,208.2855560902337,338.7951901295885,48,-596,1,4,6,7,8,18,11,13,12,10,-49,-54,-56,-56,-62,-63,-64,-64,-64,-64,0
study,76402,7,35.57341195,129.18773563,411.0,0.15622166,0.3226187,9.804854,0.0014647375,-0.0014647375,0.0018642114,38.52858571397312,238.0,9445.79812785625,6916.61600433037,2498.1323305437827,733.4207760170275,684.3972454179948,593.5395266196705,428.0187110978953,609.853673164066,848.8363324721304,2031.008345315556,48,-596,1,4,6,7,8,18,11,13,12,10,-49,-54,-56,-56,-62,-63,-64,-64,-64,-64,0
study,76407,7,35.57341195,129.18773563,411.0,0.15622166,0.3226187,9.804854,0.0030626329,-0.0009321057,-0.0018642114,37.83929746901701,204.0,6827.818736148217,6279.561819802571,2471.861257265318,1474.489339087075,1553.032639815898,613.4709838309075,510.595208121673,471.40816976860265,511.601576854612,756.0671043120682,48,-596,1,4,6,7,8,18,11,13,12,10,-49,-54,-56,-56,-62,-63,-64,-64,-64,-64,0
study,76412,7,35.57341195,129.18773563,406.0,0.15622166,0.3226187,9.804854,0.0015978955,-0.0013315795,0.005060002,39.31026843852312,208.0,7701.268148001484,3354.4884044477963,2144.049723098716,1018.1904620780302,819.5519585876674,298.1743035912072,201.47771855972928,177.67445220162418,252.5633540796603,212.73424386644385,48,-596,1,4,6,7,8,18,11,13,12,10,-49,-54,-56,-56,-62,-63,-64,-64,-64,-64,0
study,76417,7,35.57344575,129.18769887,404.0,0.15622166,0.3226187,9.804854,0.0010652636,-0.0017310535,0.002663159,39.046820432974975,272.0,13376.015013653618,4827.158760890225,3201.108841562316,1047.6507348978114,820.4423351142158,740.6162504068678,503.2999720542586,231.1387654091223,206.4814873262405,440.63870257298686,48,-596,1,4,6,7,8,18,11,13,12,10,-49,-54,-56,-56,-62,-63,-64,-64,-64,-64,0
study,76422,7,35.57344575,129.18769887,406.0,0.15622166,0.3226187,9.804854,0.00013315796,-0.0015978955,0.0035952649,41.41864312098325,334.0,12333.056171977323,8137.449017746456,3904.4228697552735,2163.925129893744,768.7087150365004,643.8506553617575,1067.8504174746206,797.5582346958447,704.9692404138303,1007.6574720207642,48,-596,1,4,6,7,8,18,11,13,12,10,-49,-54,-56,-56,-62,-63,-64,-64,-64,-64,0
study,76427,7,35.57345851,129.18763257,396.0,0.15622166,0.3226187,9.804854,0.0009321057,-0.0015978955,-0.0018642114,43.52467242016202,1246.0,21892.635037978413,12339.03343199949,2896.016152572944,4525.786880262602,4487.381237652585,2624.588627080963,3023.087379908339,1870.3892034731516,3853.125532295912,7132.802873358928,48,-596,1,4,6,7,8,18,11,13,12,10,-49,-54,-56,-56,-62,-63,-64,-64,-64,-64,0
study,76432,7,35.57349953,129.18726468,416.0,0.15622166,0.3226187,9.804854,0.0005326318,-0.0018642114,-0.00039947388,38.79853871712595,296.0,22836.792063658693,5414.872078612311,3094.965205763222,1129.192376252508,720.1962998837975,331.2338980988312,279.970707675716,270.39335583587894,318.8222159120872,863.0509679502485,48,-596,1,4,6,7,8,18,11,13,12,10,-49,-54,-56,-56,-62,-63,-64,-64,-64,-64,0
study,76437,7,35.57349953,129.18726468,428.0,0.15622166,0.3226187,9.804854,0.0009321057,-0.0011984216,0.002663159,37.803474543567305,208.0,13749.09344117076,9723.470401341558,3399.05695058854,1730.3144015246253,1206.3274366457322,881.8540521236141,639.0474388464281,487.4167563495105,394.1355762015029,539.2317954082151,48,-596,1,4,6,7,8,18,11,13,12,10,-49,-54,-56,-56,-62,-63,-64,-64,-64,-64,0
study,76442,7,35.57349097,129.18737312,420.0,0.15622166,0.3226187,9.804854,0.0011984216,-0.0011984216,-0.0021305273,38.69717903294326,273.0,6589.37164786499,7509.49017758081,3182.5823989940272,1294.304451861103,937.5475648315268,525.3070270049478,465.82581885170856,339.70769173373606,303.0856858620725,436.3877734505462,48,-596,1,4,6,7,8,18,11,13,12,10,-49,-54,-56,-56,-62,-63,-64,-64,-64,-64,0
study,76447,7,35.57349097,129.18737312,424.0,0.15622166,0.3226187,9.804854,0.0014647375,-0.00079894776,-0.0043942127,38.49316324906833,314.0,9567.90607522432,9039.412740641965,2630.956285393549,1002.633859227524,683.0063909209621,429.54110146742846,346.68720222436,216.67623482202413,253.5996467632044,455.51462817488937,48,-596,1,4,6,7,8,18,11,13,12,10,-49,-54,-56,-56,-62,-63,-64,-64,-64,-64,0
study,76452,7,35.5734689,129.18746016,430.0,0.15622166,0.3226187,9.804854,0.0010652636,-0.0013315795,-0.003195791,39.7681596828597,274.0,11060.188377999362,7439.832191238318,3016.7800672989147,1499.1088963273385,973.1792946306524,747.6974953625413,461.2935313261955,409.9493681357743,445.5710911692713,541.2482322202544,48,-596,1,4,6,7,8,18,11,13,12,10,-49,-54,-56,-56,-62,-63,-64,-64,-64,-64,0
study,76458,7,35.57367142,129.18737343,410.0,0.15622166,0.3226187,9.804854,0.00013315796,-0.0018642114,0.0067910557,43.27293540087859,375.0,18416.11323359891,7072.648578808095,2070.865300758188,836.8249282349287,602.8092215891667,325.49854018995,220.02335172102883,253.56482294526413,310.1051683406674,374.4510079160815,48,-596,1,4,6,7,8,18,11,13,12,10,-49,-54,-56,-56,-62,-63,-64,-64,-64,-64,0
study,76463,7,35.5737005,129.187373,410.0,0.15622166,0.3226187,9.804854,0.0014647375,-0.0013315795,-0.00066578976,42.417462706729374,314.0,23503.146352625936,6303.2054231008005,1667.5048120262816,1349.4816621226062,885.7448231701136,845.2990877151218,754.6763068638974,453.2334506720575,448.4678986150089,541.3362997496195,48,-596,1,4,6,7,8,18,11,13,12,10,-49,-54,-56,-56,-62,-63,-64,-64,-64,-64,0
study,76468,7,35.5737005,129.187373,418.0,0.15622166,0.3226187,9.804854,0.0,-0.0011984216,-0.0010652636,39.17969583595364,343.0,20147.23407060752,6746.956638521247,1999.8725119568708,769.5735600869601,528.7779928295432,433.85754877974375,279.48842101272544,173.4096956458472,197.0169182854196,330.63626833219433,48,-596,1,4,6,7,8,18,11,13,12,10,-49,-54,-56,-56,-62,-63,-64,-64,-64,-64,0
study,76473,7,35.57395659,129.18730929,396.0,0.15622166,0.3226187,9.804854,-0.003328949,-0.002929475,-0.0010652636,37.02449337539767,225.0,13491.15699148052,3805.790871653372,2041.8976595105896,657.5646957146812,623.5137004854465,319.9506119268438,228.3948386515623,172.06902165596102,169.2204507775673,278.320239733944,48,-596,1,4,6,7,8,18,11,13,12,10,-49,-54,-56,-56,-62,-63,-64,-64,-64,-64,0
study,76478,7,35.57394786,129.18736611,392.0,0.15622166,0.3226187,9.804854,0.0011984216,-0.0015978955,0.0018642114,38.124261426974925,206.0,9212.14674408799,7576.906912157673,3328.997030583522,1113.6183044692962,843.9269297677274,557.6471045667561,394.2741622840876,246.19748027678693,293.7062244849347,765.7915254319267,48,-596,1,4,6,7,8,18,11,13,12,10,-49,-54,-56,-56,-62,-63,-64,-64,-64,-64,0
study,76483,7,35.57380831,129.18763246,395.0,0.15622166,0.3226187,9.804854,0.00066578976,-0.0014647375,0.0011984216,36.41465119047414,186.0,4113.309466789188,4515.87946099907,2440.103937959997,670.768049655289,538.4713864376556,445.429186145369,258.25227325961737,220.19398083180968,203.8380099953051,311.0768291114204,48,-596,1,4,6,7,8,18,11,13,12,10,-49,-54,-56,-56,-62,-63,-64,-64,-64,-64,0
study,76488,7,35.57374981,129.18769958,394.0,0.15622166,0.3226187,9.804854,0.0009321057,-0.0015978955,0.003462107,39.88554378544732,258.0,13192.56854350058,5928.4465733683055,2774.1343255337383,838.239748854925,743.8425611188527,412.7324312629102,260.4268436032806,215.7473255687288,206.01037629830225,286.00381826567457,48,-596,1,4,6,7,8,18,11,13,12,10,-49,-54,-56,-56,-62,-63,-64,-64,-64,-64,0
study,76493,7,35.57374981,129.18769958,393.0,0.15622166,0.3226187,9.804854,0.0005326318,-0.0014647375,0.0045273704,37.23884729713419,188.0,8031.432486263331,6966.677420774844,2567.779738740716,975.6629650372683,875.1174870066316,593.586175894565,401.048483670658,540.8130672984911,887.4651380701687,546.3894352144747,54,-524,3,1,0,2,5,4,6,7,13,12,-47,-48,-48,-48,-52,-54,-54,-55,-59,-59,0
study,76498,7,35.57370136,129.18778753,392.0,0.15622166,0.3226187,9.804854,0.00039947388,-0.0014647375,0.0038615807,40.40556538058671,247.0,19840.71194762817,5474.84853266274,2089.3358161465944,793.8410483258613,770.3932465412363,383.50008952459496,290.32836412121287,234.85373083899376,216.5167857732576,311.7799487263595,61,-530,2,0,3,1,4,7,5,6,11,13,-48,-49,-49,-50,-52,-53,-54,-55,-60,-60,0
study,76503,7,35.57370136,129.18778753,392.0,0.017357962,0.30346507,9.814431,0.00066578976,-0.0013315795,0.0013315795,38.48812905236026,257.0,11711.368344299137,11965.188802584751,2002.7277347288068,1089.2917336119233,806.2618251672492,455.73786806600674,299.79929282803494,295.3266488898184,205.64029877893603,439.7443188087479,55,-520,0,2,3,1,7,6,5,4,11,13,-45,-46,-46,-49,-52,-53,-54,-55,-60,-60,0
study,76508,7,35.57372959,129.18778033,396.0,0.017357962,0.30346507,9.814431,0.0005326318,-0.0014647375,-0.0010652636,40.31884959534814,254.0,8902.203858370154,6073.812089039611,2987.887560511329,681.0434545111522,620.2176771411538,417.1721779531579,191.71344949970543,239.25094214174436,228.88599398805485,309.87698672153283,59,-511,1,0,2,3,6,7,5,4,13,10,-46,-46,-46,-46,-51,-52,-52,-54,-59,-59,0
study,76513,7,35.57375658,129.18776588,394.0,0.017357962,0.30346507,9.814431,0.0005326318,-0.0014647375,0.003462107,45.637245774031655,520.0,23172.67759318957,8401.850188758193,2416.610825900211,781.6612069886937,666.7415879920551,435.1113361725485,328.6677013390363,359.556878273669,319.03959248573506,469.64884929199593,59,-511,1,0,2,3,6,7,5,4,13,10,-46,-46,-46,-46,-51,-52,-52,-54,-59,-59,0
study,76518,7,35.57375658,129.18776588,395.0,0.017357962,0.30346507,9.814431,0.0002663159,-0.0015978955,0.0023968432,39.822578151241245,346.0,11208.235149069766,8692.34898353479,1391.702251949448,790.7299801055693,807.4741191149884,500.9902609412836,298.4342911654265,254.97658071666584,322.49801199268074,483.54425047173976,59,-511,1,0,2,3,6,7,5,4,13,10,-46,-46,-46,-46,-51,-52,-52,-54,-59,-59,0
study,76523,7,35.57375658,129.18776588,396.0,0.017357962,0.30346507,9.814431,0.00079894776,-0.0014647375,-0.0023968432,38.55705645410169,222.0,11907.76141308434,4211.327334152478,2407.727051957548,1223.9728998031874,858.8880728880707,398.4258632294718,286.77877326469206,253.6829050458384,352.0114759811132,1128.6306492275196,59,-511,1,0,2,3,6,7,5,4,13,10,-46,-46,-46,-46,-51,-52,-52,-54,-59,-59,0
study,76528,7,35.57375658,129.18776588,397.0,0.017357962,0.30346507,9.814431,0.00039947388,-0.0018642114,0.0014647375,40.7824501200567,351.0,15730.72075646389,3683.791494572699,2965.878787291313,491.9925960052949,946.7435463508386,448.6130885752228,527.5977718774093,420.03877537087175,431.2741812879849,1363.681593798603,59,-511,1,0,2,3,6,7,5,4,13,10,-46,-46,-46,-46,-51,-52,-52,-54,-59,-59,0
study,76533,7,35.57375658,129.18776588,398.0,0.017357962,0.30346507,9.814431,0.0002663159,-0.0013315795,0.0015978955,39.87886308019366,307.0,9703.076740672,7825.009683745945,1943.2561396589404,572.9321107425803,643.5720589170654,346.2624055699164,236.20871470316823,177.31072260639672,188.87621454407804,243.90629360296973,59,-511,1,0,2,3,6,7,5,4,13,10,-46,-46,-46,-46,-51,-52,-52,-54,-59,-59,0
study,76538,7,35.57375658,129.18776588,396.0,0.017357962,0.30346507,9.814431,0.00039947388,-0.0014647375,0.0019973693,34.87515199302831,142.0,11449.279151006716,7677.305615281555,2342.307884741757,623.7008514652832,784.113884426367,461.441993144786,449.8861494069098,259.2903274351138,195.63011409008016,223.4032529409893,59,-511,1,0,2,3,6,7,5,4,13,10,-46,-46,-46,-46,-51,-52,-52,-54,-59,-59,0
study,76543,7,35.57375658,129.18776588,406.0,0.017357962,0.30346507,9.814431,0.00039947388,-0.0011984216,0.002663159,40.42573864532499,248.0,18575.259903436003,10009.117965449275,5488.664048072231,2790.375719101814,1947.446029421407,1155.7160588649078,956.2929376613448,677.9792193814737,480.4622161270236,462.4696315787146,59,-511,1,0,2,3,6,7,5,4,13,10,-46,-46,-46,-46,-51,-52,-52,-54,-59,-59,0
study,76548,7,35.57375658,129.18776588,399.0,0.017357962,0.30346507,9.814431,0.00066578976,-0.0017310535,-0.0002663159,41.73729625994567,399.0,10965.30927268759,7435.52039671923,2947.013550792215,698.789294800148,690.2683043464928,299.6296778649024,361.1488862379914,287.87148041036886,299.0019886006743,458.6029885814993,59,-511,1,0,2,3,6,7,5,4,13,10,-46,-46,-46,-46,-51,-52,-52,-54,-59,-59,0
study,76553,7,35.57375658,129.18776588,398.0,0.017357962,0.30346507,9.814431,0.0,-0.0015978955,-0.0039947387,38.96377459343351,278.0,14977.695914174448,10632.63851811772,5618.565460697602,1037.1547534606148,728.7898717574418,328.0742084981122,291.22215829290377,302.46883957524045,532.4427542749144,285.6125880273708,59,-511,1,0,2,3,6,7,5,4,13,10,-46,-46,-46,-46,-51,-52,-52,-54,-59,-59,0
study,76558,7,35.57375658,129.18776588,395.0,0.017357962,0.30346507,9.814431,0.0002663159,-0.0015978955,0.0035952649,41.30741428310117,328.0,19683.28621821593,5784.9843539254025,2409.516018517176,829.1310780466395,1086.6668294322997,627.0612449894577,627.3943888756813,609.9757694492007,537.2255241402945,652.9468916992292,59,-511,1,0,2,3,6,7,5,4,13,10,-46,-46,-46,-46,-51,-52,-52,-54,-59,-59,0
study,76563,7,35.57375658,129.18776588,396.0,0.017357962,0.30346507,9.814431,0.00066578976,-0.0013315795,0.0,40.10897980963701,312.0,23617.1210972533,9363.241414698923,9775.624844578608,4768.003629253351,3841.564317377125,2866.485596703086,1463.5502137305773,978.777502463255,568.1386191686431,921.6109393298532,59,-511,1,0,2,3,6,7,5,4,13,10,-46,-46,-46,-46,-51,-52,-52,-54,-59,-59,0
study,76568,7,35.57375658,129.18776588,408.0,0.017357962,0.30346507,9.814431,0.0009321057,-0.0011984216,0.0022636852,40.70000223096183,298.0,4319.358433609493,8838.653731166476,4523.255920373294,2124.379746536406,1226.0622338859332,926.134358753695,694.6502446696816,447.3893013258717,304.837475387146,269.60423656121014,59,-511,1,0,2,3,6,7,5,4,13,10,-46,-46,-46,-46,-51,-52,-52,-54,-59,-59,0
study,76573,7,35.57375658,129.18776588,410.0,0.017357962,0.30346507,9.814431,0.00079894776,-0.0013315795,0.00066578976,38.50164203781035,241.0,16287.160135059145,7388.832269476776,3281.2192924483456,1831.192917119075,1330.9213583836902,759.7767832996092,483.5462770588899,413.26958281842445,320.29867813259534,447.0441468564616,59,-511,1,0,2,3,6,7,5,4,13,10,-46,-46,-46,-46,-51,-52,-52,-54,-59,-59,0
study,76578,7,35.57375658,129.18776588,393.0,0.017357962,0.30346507,9.814431,0.0005326318,-0.0017310535,0.0073236874,37.09182194237816,311.0,11710.848965062054,8982.828084463577,3203.363663324976,1214.4157941590236,1169.1044307373886,842.0133439742441,627.1943048492919,439.2619068374535,325.9838911833137,536.9189400392535,59,-511,1,0,2,3,6,7,5,4,13,10,-46,-46,-46,-46,-51,-52,-52,-54,-59,-59,0
study,76583,7,35.57375658,129.18776588,395.0,0.017357962,0.30346507,9.814431,0.00079894776,-0.0013315795,-0.0023968432,37.96917264993359,223.0,10480.593679015605,4415.410821139407,2052.007241391678,1193.3701533163248,872.0102372247661,456.16862688216247,290.11834570001656,224.2653573868117,198.3951835480448,214.14353107006747,59,-511,1,0,2,3,6,7,5,4,13,10,-46,-46,-46,-46,-51,-52,-52,-54,-59,-59,0
study,76588,7,35.57375658,129.18776588,394.0,0.017357962,0.30346507,9.814431,0.0005326318,-0.0014647375,-0.0023968432,41.24909211092814,514.0,12236.402619801573,10094.26135102619,3149.6778177582864,1095.6575971612533,861.8895050620799,663.1556229085568,447.07783751314855,356.03897858599976,281.14743697254147,324.55968646654384,59,-511,1,0,2,3,6,7,5,4,13,10,-46,-46,-46,-46,-51,-52,-52,-54,-59,-59,0
study,76593,7,35.57375658,129.18776588,402.0,0.017357962,0.30346507,9.814431,0.0005326318,-0.0014647375,0.0030626329,38.99695172576073,489.0,19803.813201806675,9906.928462799346,3622.672859640181,1401.6454826427118,1204.4332637063344,753.8669562654954,556.819754104207,405.06441950905577,352.9577572553347,434.295630815195,59,-511,1,0,2,3,6,7,5,4,13,10,-46,-46,-46,-46,-51,-52,-52,-54,-59,-59,0
study,76598,7,35.57375658,129.18776588,404.0,0.017357962,0.30346507,9.814431,0.00039947388,-0.0017310535,-0.002796317,41.39126854869798,1232.0,14039.696174093697,7829.279905152251,3003.175537603858,1250.5508804820886,1039.8191286734948,737.5105794033324,493.232125103698,389.6104193939208,362.8021948551283,768.6729369619646,59,-511,1,0,2,3,6,7,5,4,13,10,-46,-46,-46,-46,-51,-52,-52,-54,-59,-59,0
study,76603,7,35.57375658,129.18776588,402.0,0.017357962,0.30346507,9.814431,0.0005326318,-0.0014647375,0.003328949,38.26638953118783,254.0,5242.837143845151,4178.497080858148,2314.460055679052,1195.9376413984442,874.3991659002123,468.9748567826598,450.6548342861838,326.80014607161945,533.4813553026548,584.8358259429862,59,-511,1,0,2,3,6,7,5,4,13,10,-46,-46,-46,-46,-51,-52,-52,-54,-59,-59,0
study,76609,7,35.57375658,129.18776588,396.0,0.017357962,0.30346507,9.814431,0.00039947388,-0.0017310535,0.0049268445,42.30161525338378,339.0,14382.40316585892,8347.975501517323,3583.865456942607,1722.5362684967563,1182.4820859675544,596.8886193308698,732.851058337708,418.98684130086286,284.2947726638673,339.2921940802265,59,-511,1,0,2,3,6,7,5,4,13,10,-46,-46,-46,-46,-51,-52,-52,-54,-59,-59,0
study,76614,7,35.57375658,129.18776588,394.0,0.017357962,0.30346507,9.814431,0.0005326318,-0.0018642114,0.002796317,41.39698215640776,263.0,8400.10660342684,10331.941513942613,2732.511314466464,823.6727143644518,750.715241413353,480.5889959694344,270.1814098622328,208.2864469439704,191.89509799029,222.6100584669748,62,-581,6,5,15,20,7,11,13,4,12,10,-56,-56,-58,-58,-58,-59,-59,-59,-59,-59,0
study,76619,7,35.57381367,129.18774295,396.0,0.017357962,0.30346507,9.814431,0.0002663159,-0.0017310535,0.0054594763,40.09513435615996,266.0,19177.67302144122,6471.477434469915,1994.7606925116145,1149.4251771934207,1086.0059263373803,522.9011163800474,404.34823594097054,302.2860818308367,216.22960681494345,307.2160797663065,58,-583,4,7,5,6,13,10,11,12,3,19,-54,-55,-55,-56,-58,-59,-60,-60,-63,-63,0
study,76624,7,35.57381367,129.18774295,398.0,0.017357962,0.30346507,9.814431,0.0009321057,-0.0013315795,0.0010652636,38.235131820232944,225.0,11332.860160403196,5636.686978599825,1458.9003969555306,923.1562112360878,808.3118242934635,351.52682316826133,276.46668901479285,222.08292120908013,224.83590005249627,199.44734681723497,56,-581,6,7,4,10,5,11,13,12,9,15,-55,-55,-58,-58,-58,-59,-59,-59,-59,-61,0
study,76629,7,35.57381367,129.18774295,407.0,0.017357962,0.30346507,9.814431,0.00066578976,-0.0013315795,-0.0015978955,37.78757191754927,253.0,13076.314967995091,6298.904186446975,2452.399894739361,880.2368467050998,583.0035509215653,467.6713460621681,216.904124191685,168.1846542974935,276.8356351135377,398.6747942280887,61,-579,4,1,7,0,2,5,11,13,12,10,-57,-57,-57,-57,-57,-58,-59,-59,-59,-59,0
study,76634,7,35.57380685,129.18770686,422.0,0.036511578,0.31304187,9.800066,0.00079894776,-0.0014647375,0.0023968432,39.359983409552505,257.0,26258.92888046418,4803.032133423348,2175.221219922506,1006.3313524709472,635.5872489627757,391.646633330407,367.2743858769964,246.89515984042495,256.5805793027169,571.2443436814058,61,-579,4,1,7,0,2,5,11,13,12,10,-57,-57,-57,-57,-57,-58,-59,-59,-59,-59,0
study,76639,7,35.57380685,129.18770686,404.0,0.0077811554,0.29867667,9.809643,0.0021305273,-0.00079894776,-0.0045273704,40.87610995594608,252.0,18069.986473367266,10036.875501821642,4616.438674417604,2017.8026719918644,1832.7287065665844,1096.9989938537356,837.675602232134,590.7699402624334,425.5878252328191,427.28603138055246,61,-579,4,1,7,0,2,5,11,13,12,10,-57,-57,-57,-57,-57,-58,-59,-59,-59,-59,0
study,76644,7,35.57380685,129.18770686,400.0,0.0077811554,0.29867667,9.809643,0.0009321057,-0.0019973693,-0.0047936863,37.90975945553686,195.0,15059.031504711316,3937.423529244935,1980.5099358717373,847.6207606415367,690.334969061099,493.4944552946835,241.2650670802193,250.04130734676468,180.9735610611809,278.8137752757271,61,-579,4,1,7,0,2,5,11,13,12,10,-57,-57,-57,-57,-57,-58,-59,-59,-59,-59,0
study,76649,7,35.57380685,129.18770686,421.0,0.026934769,0.28431144,9.814431,0.00066578976,-0.0013315795,-0.003195791,38.23626345621123,259.0,4279.356496059418,6795.620705446027,1448.3633952668304,769.5593472819086,906.016751793354,430.2940951212329,307.4071302895201,200.771242274449,250.0992997300871,335.0847291434418,61,-579,4,1,7,0,2,5,11,13,12,10,-57,-57,-57,-57,-57,-58,-59,-59,-59,-59,0
study,76654,7,35.57377015,129.1877494,398.0,0.022146367,0.30346507,9.84795,0.0002663159,-0.0013315795,0.0038615807,39.49852244108322,278.0,5544.885796734527,6873.3670128814,2568.8730259401364,775.5330622954095,822.6417903573074,475.99618847660446,264.24094795433723,200.49896452245773,197.50184728026343,197.35306246277256,61,-579,4,1,7,0,2,5,11,13,12,10,-57,-57,-57,-57,-57,-58,-59,-59,-59,-59,0
study,76659,7,35.57377015,129.1877494,412.0,0.022146367,0.30346507,9.84795,0.002530001,-0.0010652636,0.0035952649,42.10945277773615,383.0,9148.662059718536,5974.782292647619,1694.386866329693,772.0605131823855,673.1536187964373,568.4111615352465,563.4570151304717,1055.0895892813232,1008.173368920842,1632.115874335395,61,-579,4,1,7,0,2,5,11,13,12,10,-57,-57,-57,-57,-57,-58,-59,-59,-59,-59,0
study,76664,7,35.57373683,129.18777037,422.0,0.022146367,0.30346507,9.84795,0.0005326318,-0.0014647375,0.0041278964,40.14684095442281,344.0,5429.992692362898,7251.476225697884,2038.1174356890183,992.2677526505412,570.8866495037249,453.4298404389076,345.0731702929233,199.58199868454008,188.9031261153783,248.77631125461943,61,-579,4,1,7,0,2,5,11,13,12,10,-57,-57,-57,-57,-57,-58,-59,-59,-59,-59,0
study,76669,7,35.57373683,129.18777037,423.0,0.022146367,0.30346507,9.84795,0.0013315795,-0.0010652636,-0.002796317,39.42509030640845,250.0,7666.344845214276,8421.026153432173,2433.69310449938,647.9454853886667,759.913940361702,365.871313190435,226.6386285511684,186.04540408344104,187.8823136672725,212.355364514017,61,-579,4,1,7,0,2,5,11,13,12,10,-57,-57,-57,-57,-57,-58,-59,-59,-59,-59,0
study,76674,7,35.57367574,129.1878133,426.0,0.022146367,0.30346507,9.84795,0.00066578976,-0.0011984216,-0.00013315796,42.50667763600772,285.0,21897.336163668264,10453.558994021085,3413.796053267141,2023.5972386281223,1526.0228744583362,978.9772429111548,709.8205281850003,588.9402803996895,381.0638269440745,348.5956150244442,61,-579,4,1,7,0,2,5,11,13,12,10,-57,-57,-57,-57,-57,-58,-59,-59,-59,-59,0
study,76679,7,35.57367574,129.1878133,397.0,0.022146367,0.30346507,9.84795,0.00039947388,-0.0018642114,0.002796317,38.96731368446257,264.0,14183.10862517021,5001.31522062078,2490.9375936024267,1089.1306315542347,655.6545754007936,458.16525070264896,311.402208284742,213.8838431649104,226.56288945748344,315.1276365487909,61,-579,4,1,7,0,2,5,11,13,12,10,-57,-57,-57,-57,-57,-58,-59,-59,-59,-59,0
study,76684,7,35.57355576,129.18790588,401.0,0.022146367,0.30346507,9.84795,0.00079894776,-0.0013315795,-0.0011984216,42.02918195115353,339.0,7307.8048722156,7203.4554607388245,2072.257442628485,735.7238078944115,706.53638918134,512.1304915830503,310.9847987394953,403.67451618839056,257.76631892106553,450.663512642641,61,-579,4,1,7,0,2,5,11,13,12,10,-57,-57,-57,-57,-57,-58,-59,-59,-59,-59,0
study,76689,7,35.57350066,129.18788341,396.0,0.022146367,0.30346507,9.84795,0.00079894776,-0.0013315795,-0.0002663159,38.00530998881206,231.0,14067.761297757395,8877.896380599144,3443.5226611288867,1548.4391680221825,1218.9767194160345,655.0033168026689,449.2848394638155,362.3788367668889,273.59993826735933,458.8432874041615,61,-579,4,1,7,0,2,5,11,13,12,10,-57,-57,-57,-57,-57,-58,-59,-59,-59,-59,0
study,76694,7,35.57348483,129.18784161,392.0,0.022146367,0.30346507,9.84795,0.00039947388,-0.0015978955,0.002530001,42.1692030155026,677.0,23466.376875142647,12953.977835363488,4975.192868267931,3295.4594193893663,1957.6782366459008,1883.997185207865,1509.7397844271993,1086.2787102462105,2107.6380367020447,3869.10155256876,61,-579,4,1,7,0,2,5,11,13,12,10,-57,-57,-57,-57,-57,-58,-59,-59,-59,-59,0
study,76699,7,35.57348483,129.18784161,396.0,0.022146367,0.30346507,9.84795,-0.00039947388,-0.0014647375,0.0,39.99956847112583,367.0,18887.24221779921,8992.381088826429,2805.87874967187,1526.100755334271,1072.6974014279804,678.0415699974324,530.7410733027531,372.9274646661653,311.0324884325361,287.99265486265296,61,-579,4,1,7,0,2,5,11,13,12,10,-57,-57,-57,-57,-57,-58,-59,-59,-59,-59,0
study,76704,7,35.57351576,129.18784299,392.0,0.022146367,0.30346507,9.84795,0.0009321057,-0.0011984216,-0.0018642114,36.791667068037455,230.0,9327.156149691547,6586.051304509916,2788.3306216910883,1294.6735539984738,1019.6121026100378,652.7638573381945,427.8515949565163,348.0680484570985,545.8155702193708,1128.0143892583976,61,-579,4,1,7,0,2,5,11,13,12,10,-57,-57,-57,-57,-57,-58,-59,-59,-59,-59,0
study,76709,7,35.57349478,129.18782163,392.0,0.022146367,0.30346507,9.84795,0.0011984216,-0.0014647375,0.0047936863,42.56141577062632,323.0,22199.396658268783,8161.817912275883,5224.360216782697,2192.85990852925,1656.3000906189263,1069.3658457819768,787.0623593769242,620.2713204881072,470.8437464726149,374.5945606459334,61,-579,4,1,7,0,2,5,11,13,12,10,-57,-57,-57,-57,-57,-58,-59,-59,-59,-59,0
study,76714,7,35.57349478,129.18782163,392.0,0.022146367,0.30346507,9.84795,0.00039947388,-0.0010652636,-0.0014647375,40.96054871758801,340.0,30276.03945671935,8330.73186651784,3723.4458780796494,1887.527070073597,1280.2882740927362,823.6520302447865,633.8705094759794,499.500987189392,583.873743330827,926.2037033132134,61,-579,4,1,7,0,2,5,11,13,12,10,-57,-57,-57,-57,-57,-58,-59,-59,-59,-59,0
study,76719,7,35.57349478,129.18782163,393.0,0.022146367,0.30346507,9.84795,0.00066578976,-0.0015978955,-0.00039947388,37.080810003246974,212.0,16417.678047218225,6635.451860565236,2335.6133907124768,846.1522993486549,739.1782040594993,525.1060678877329,411.2569153203096,366.13323353673405,381.8687338710956,949.626568288457,61,-579,4,1,7,0,2,5,11,13,12,10,-57,-57,-57,-57,-57,-58,-59,-59,-59,-59,0
study,76724,7,35.57349478,129.18782163,393.0,0.022146367,0.30346507,9.84795,0.0010652636,-0.0014647375,-0.0014647375,38.88818590871667,220.0,20130.744650071083,7896.114341154274,4818.534757835815,2038.3150059084944,1523.6971541363755,1083.2298642516394,839.914634336059,567.9585987449186,469.5807245398959,421.1966510202021,61,-579,4,1,7,0,2,5,11,13,12,10,-57,-57,-57,-57,-57,-58,-59,-59,-59,-59,0
study,76729,7,35.57351115,129.18785244,393.0,0.022146367,0.30825347,9.809643,0.00066578976,-0.0013315795,0.00013315796,40.95892747953407,287.0,25905.939296196306,9329.913978219947,3009.243955626256,1638.763851625872,769.685865396028,539.0903225282743,427.6787047612091,300.00018239269207,245.89216148462947,273.1895725284259,61,-579,4,1,7,0,2,5,11,13,12,10,-57,-57,-57,-57,-57,-58,-59,-59,-59,-59,0
study,76734,7,35.57351115,129.18785244,393.0,0.022146367,0.30825347,9.809643,0.00066578976,-0.0013315795,0.0017310535,41.77398933415699,293.0,13222.312582579754,6847.132061162983,3952.7522580483055,1524.76813852962,1072.0792966612462,633.4601951566049,426.7676755840293,391.17974459171006,346.478223073712,427.1622899998046,57,-581,7,5,1,6,11,13,4,10,3,12,-56,-56,-57,-57,-59,-59,-59,-59,-59,-60,0
study,76739,7,35.57348443,129.1878341,393.0,0.022146367,0.30825347,9.809643,0.00039947388,-0.0011984216,0.003462107,41.50932070883725,339.0,21656.076086771507,6525.795721596144,2444.805372821115,656.6249732862552,620.4463870710821,357.3857185315412,228.3035972590021,183.40952888045192,174.53544555420373,306.0897816281041,63,-582,1,0,4,6,7,5,3,12,2,11,-57,-57,-58,-58,-58,-58,-58,-59,-59,-60,0
study,76744,7,35.57348443,129.1878341,394.0,0.022146367,0.30825347,9.809643,0.0005326318,-0.0019973693,0.0011984216,42.21822347005294,335.0,19952.2403917188,11223.892705922775,2099.1826834695767,792.1902752367799,626.9614171023122,550.0914668424749,391.0909519527991,334.86533941154914,483.5129207300069,707.9318079973508,52,-585,20,4,6,7,5,3,11,10,1,2,-55,-58,-58,-58,-58,-58,-60,-60,-60,-60,0
study,76749,7,35.57346524,129.18786742,395.0,0.022146367,0.30825347,9.809643,0.0010652636,-0.00079894776,0.0074568456,38.94982250849844,242.0,20619.80669874922,6615.373867304079,3561.0196605482465,1371.3166742105614,883.5281418784476,478.0679028354503,251.33786942310252,185.06907531671695,213.51620480135608,378.5989130324807,57,-577,21,4,7,6,5,2,1,0,3,11,-55,-56,-56,-57,-58,-58,-59,-59,-59,-60,0
study,76755,7,35.57346524,129.18786742,395.0,0.022146367,0.30825347,9.809643,0.0009321057,-0.0018642114,0.00013315796,41.58517249920866,327.0,13158.138915407928,5728.21918268526,4508.797954539164,2155.3905389488573,1020.7354843740115,646.6295074449133,411.5202425128848,322.2612541046161,584.626572964227,887.9064406654394,57,-577,21,4,7,6,5,2,1,0,3,11,-55,-56,-56,-57,-58,-58,-59,-59,-59,-60,0
study,76760,7,35.57346524,129.18786742,395.0,0.022146367,0.30825347,9.809643,-0.00013315796,-0.0015978955,-0.0013315795,39.36212703952368,735.0,20591.0249245047,5137.571877072047,2525.619376784297,1223.7934009498008,1370.3457501622308,2004.472981616269,2026.679117106718,1849.8151810915776,2499.723363472021,2833.1225194856283,57,-577,21,4,7,6,5,2,1,0,3,11,-55,-56,-56,-57,-58,-58,-59,-59,-59,-60,0
study,76765,7,35.57352394,129.18785144,395.0,0.022146367,0.30825347,9.809643,0.0,-0.0017310535,0.0,41.99247479418209,322.0,13625.231495082326,8192.220328071495,2201.335242811845,885.3306501619024,769.4422604294351,466.98108365417806,357.5666063412492,280.0381936209532,260.8555798044117,380.6679995820674,57,-577,21,4,7,6,5,2,1,0,3,11,-55,-56,-56,-57,-58,-58,-59,-59,-59,-60,0
study,76770,7,35.57352394,129.18785144,405.0,0.022146367,0.30825347,9.809643,0.0017310535,-0.00079894776,-0.0037284228,41.38244291854082,281.0,15482.550513600852,12384.34893597998,2723.4995196015057,1459.176466398357,964.3643764890536,608.0258015304594,421.431049207471,324.05560331495184,278.0907406762178,713.4351372937341,57,-577,21,4,7,6,5,2,1,0,3,11,-55,-56,-56,-57,-58,-58,-59,-59,-59,-60,0
study,76775,7,35.57351616,129.1878088,411.0,0.022146367,0.30825347,9.809643,0.00079894776,-0.0014647375,0.002530001,40.05446383502918,270.0,10952.533885503211,7585.024911718179,2042.3162366882957,730.1438036380468,890.9129887626995,515.8952233046755,289.23737445632645,236.73349553552237,235.5014442254948,268.2395986136246,57,-577,21,4,7,6,5,2,1,0,3,11,-55,-56,-56,-57,-58,-58,-59,-59,-59,-60,0
study,76780,7,35.57354579,129.18777225,416.0,0.022146367,0.30825347,9.809643,0.0015978955,-0.0011984216,0.005326318,39.6634425234313,363.0,11315.355363166342,7935.219044666768,2109.947534017369,1152.0404204391546,1053.1978685002814,1130.6025969602688,3826.4391135123496,1753.1853376481636,1668.9342532002204,3290.5456767459127,57,-577,21,4,7,6,5,2,1,0,3,11,-55,-56,-56,-57,-58,-58,-59,-59,-59,-60,0
study,76785,7,35.57356334,129.18781106,402.0,0.022146367,0.30825347,9.809643,0.0005326318,-0.0010652636,0.0030626329,41.28152419858411,298.0,21044.591052848715,4710.635932785279,1989.3941797994212,941.3413171298172,763.834473557035,419.7041450563663,318.55559086939866,197.46568115915449,208.5416739598636,266.4265232286731,57,-577,21,4,7,6,5,2,1,0,3,11,-55,-56,-56,-57,-58,-58,-59,-59,-59,-60,0
study,76790,7,35.57357952,129.18785372,402.0,0.022146367,0.30825347,9.809643,0.00013315796,-0.0018642114,0.00066578976,39.64873929771192,222.0,12863.174812821522,6412.007338850476,1920.631587602648,1119.0314874214737,842.5812047363205,525.6965069346456,455.7692789729275,289.7385331423821,226.24015664753173,278.3010711065198,57,-577,21,4,7,6,5,2,1,0,3,11,-55,-56,-56,-57,-58,-58,-59,-59,-59,-60,0
study,76795,7,35.57357952,129.18785372,409.0,0.022146367,0.30825347,9.809643,0.0010652636,-0.0011984216,0.0013315795,39.620172542618576,312.0,17004.14350118992,8504.130080889217,2629.804400565231,1400.2127223334385,947.8034714692984,599.4585977440465,338.0350120482797,280.052633854805,251.70704061163227,387.4659922415362,57,-577,21,4,7,6,5,2,1,0,3,11,-55,-56,-56,-57,-58,-58,-59,-59,-59,-60,0
study,76800,7,35.57357952,129.18785372,399.0,0.022146367,0.30825347,9.809643,0.0005326318,-0.0018642114,0.0041278964,39.269379824202645,240.0,7167.738186808761,8368.479367468279,1712.7407285095424,886.952380640008,539.6303694260811,419.868123613311,249.2010485749101,228.31266060239756,234.25918552646075,542.3701771236217,57,-577,21,4,7,6,5,2,1,0,3,11,-55,-56,-56,-57,-58,-58,-59,-59,-59,-60,0
study,76805,7,35.57358811,129.18789107,398.0,0.022146367,0.31783026,9.814431,0.0005326318,-0.0015978955,0.0010652636,38.8543494490031,241.0,12537.859438579806,5934.082441925796,2675.220139351919,944.5151588770896,601.2338919313592,434.4290945562993,307.70089717196925,218.42112393274007,172.64523235108473,199.3578420663249,57,-577,21,4,7,6,5,2,1,0,3,11,-55,-56,-56,-57,-58,-58,-59,-59,-59,-60,0
study,76810,7,35.57358811,129.18789107,429.0,0.022146367,0.31783026,9.814431,0.00039947388,-0.0014647375,-0.0009321057,43.05316041031144,357.0,23785.76073685679,5932.975596222988,2503.620558310104,685.849903012221,462.67293106443657,359.7773103405577,151.8201421775495,135.808229663099,171.27082219284253,298.023302183899,57,-577,21,4,7,6,5,2,1,0,3,11,-55,-56,-56,-57,-58,-58,-59,-59,-59,-60,0
study,76815,7,35.57358811,129.18789107,429.0,0.022146367,0.31783026,9.814431,0.0002663159,-0.0018642114,0.0041278964,37.36749503191978,215.0,1553.5177998778408,6800.162687386312,1792.5299909695534,621.2059812762691,723.9272817690443,461.3416872749608,371.83565451978126,183.45335372818096,239.70646060342344,363.6598315167169,57,-577,21,4,7,6,5,2,1,0,3,11,-55,-56,-56,-57,-58,-58,-59,-59,-59,-60,0
study,76820,7,35.57358811,129.18789107,407.0,0.022146367,0.31783026,9.814431,0.0017310535,-0.0010652636,0.0017310535,37.63874693958782,218.0,9197.895015343802,4349.777583076667,2305.627106854476,580.8387992845408,804.7720468802876,356.1461040940049,199.19391577145927,181.0740543543213,176.6294971923478,201.54390169740407,57,-577,21,4,7,6,5,2,1,0,3,11,-55,-56,-56,-57,-58,-58,-59,-59,-59,-60,0
study,76825,7,35.57361,129.18792454,414.0,0.022146367,0.31783026,9.814431,0.00039947388,-0.0022636852,-0.0073236874,39.60643800321543,275.0,12115.66264126811,6457.329493930814,2956.7472107396447,1299.6384959920383,963.1235954930956,518.4769348129873,379.7145423835959,341.9441842701696,512.4115967690765,434.05004728548187,57,-577,21,4,7,6,5,2,1,0,3,11,-55,-56,-56,-57,-58,-58,-59,-59,-59,-60,0
study,76830,7,35.57356458,129.18789978,398.0,0.022146367,0.31783026,9.814431,0.002796317,-0.0010652636,0.0041278964,38.61382339299102,234.0,16946.280572655618,11389.743302967949,2016.7980122219533,935.8383771442903,743.7142636274693,599.9648673491429,418.22836868173,293.9913755098258,212.03317572958207,274.2379234303521,57,-577,21,4,7,6,5,2,1,0,3,11,-55,-56,-56,-57,-58,-58,-59,-59,-59,-60,0
study,76835,7,35.57356458,129.18789978,408.0,0.022146367,0.31783026,9.814431,0.00066578976,-0.0014647375,-0.0009321057,37.735365548762175,264.0,8262.034845374548,7970.867906807072,2119.4066063215737,563.21485472842,885.5881163294948,366.29415643566944,253.00266470374467,228.09212139439933,210.5432576387385,344.2312489022161,57,-577,21,4,7,6,5,2,1,0,3,11,-55,-56,-56,-57,-58,-58,-59,-59,-59,-60,0
study,76840,7,35.57345262,129.18788203,417.0,0.022146367,0.31783026,9.814431,0.0010652636,-0.0015978955,-0.0013315795,43.60373080575179,537.0,29511.66245696777,11545.608780875857,5177.306855970346,6405.338783657762,4985.208024256174,4402.903017534894,7238.129721744445,2266.208025903246,2671.5103326354524,6193.900555494995,57,-577,21,4,7,6,5,2,1,0,3,11,-55,-56,-56,-57,-58,-58,-59,-59,-59,-60,0
study,76845,7,35.57345262,129.18788203,428.0,0.022146367,0.31783026,9.814431,0.00079894776,-0.0014647375,0.003195791,38.90010042731747,259.0,16028.60351700212,5745.524179445334,2477.000419115976,807.33642077828,775.4392099958503,436.1850955680474,415.2674656882996,254.29788480367512,238.03068291332136,568.7549127350675,57,-577,21,4,7,6,5,2,1,0,3,11,-55,-56,-56,-57,-58,-58,-59,-59,-59,-60,0
study,76850,7,35.57345262,129.18788203,430.0,0.022146367,0.31783026,9.814431,0.00013315796,-0.0015978955,0.003195791,38.17451205736637,206.0,4524.288290536524,7262.130243098118,1640.4107161580105,585.5782009610689,663.3446706030485,321.5583168777516,278.9798682446228,212.22956634147752,259.9703983059801,366.3126835932672,57,-577,21,4,7,6,5,2,1,0,3,11,-55,-56,-56,-57,-58,-58,-59,-59,-59,-60,0
study,76855,7,35.57341319,129.18788185,429.0,0.022146367,0.31783026,9.814431,0.0011984216,-0.0014647375,-0.002796317,44.49424355240648,387.0,11792.244473580253,6546.700363314351,4416.648888709493,1558.802218961279,1288.184374236898,894.2052105441788,891.4989846207536,899.5674158335161,700.5524484725669,1352.5513734204612,63,-547,4,1,6,0,7,5,2,13,10,3,-52,-53,-53,-53,-54,-55,-56,-57,-57,-57,0
study,76860,7,35.57331434,129.18787835,430.0,0.022146367,0.31783026,9.814431,0.00039947388,-0.0017310535,0.0010652636,39.64827667011415,203.0,12171.80881743156,10335.695840007564,3286.476534707818,1771.7711715631383,1166.570675073482,754.9220504290755,535.6684986328422,396.3355365773549,278.9687873828529,311.3593110661451,59,-546,6,4,1,7,5,3,2,17,9,0,-51,-52,-53,-53,-53,-53,-56,-58,-58,-59,0
study,76865,7,35.57325464,129.1878572,400.0,0.022146367,0.31783026,9.814431,0.0019973693,-0.0014647375,-0.0019973693,39.018249328144,218.0,19319.5702648148,5782.500250900464,3210.165170617543,857.877132537573,923.1678980511244,465.0127773479885,336.75549664979803,244.34122679540687,284.0437618969841,437.457323155363,62,-581,6,5,4,7,9,2,11,13,1,12,-55,-55,-56,-57,-58,-59,-60,-60,-60,-61,0
study,76870,7,35.5732272,129.18782535,430.0,0.022146367,0.31783026,9.814431,-0.00013315796,-0.0013315795,0.002663159,40.69416021216299,226.0,10079.474647036446,9876.705386826508,3127.685113683316,1608.433189258385,1045.2771656011337,676.5082248704097,573.1291590677753,319.05682335611726,400.5757266854001,313.8658226015946,58,-544,6,4,7,5,2,3,1,0,13,20,-52,-53,-53,-53,-53,-53,-55,-56,-58,-58,0
study,76875,7,35.5732272,129.18782535,430.0,0.022146367,0.31783026,9.814431,0.0010652636,-0.0011984216,0.00079894776,42.25947056846156,330.0,10912.31590786302,5579.779262459252,1703.1801985329523,894.202970138655,1350.2571185051631,439.17555772959616,404.2629041976821,238.66241845747305,297.9152427108447,315.8530100667653,58,-544,6,4,7,5,2,3,1,0,13,20,-52,-53,-53,-53,-53,-53,-55,-56,-58,-58,0
study,76880,7,35.57327051,129.18779934,428.0,0.022146367,0.31783026,9.814431,0.00079894776,-0.0015978955,0.0037284228,38.9980400448592,231.0,8481.446566823866,4989.767954375322,1931.947757822648,1157.627691613653,767.7966370364576,772.783204045212,550.6187683926294,244.61033399484413,386.57836046119934,849.6832773735092,58,-544,6,4,7,5,2,3,1,0,13,20,-52,-53,-53,-53,-53,-53,-55,-56,-58,-58,0
study,76885,7,35.57336491,129.18775854,430.0,0.022146367,0.31783026,9.814431,0.0013315795,-0.0018642114,0.0035952649,40.18819557414092,270.0,21967.81403999268,9249.890557405555,2434.8638623098686,1505.8649352839736,876.4811150817762,735.3904890965288,552.531321143736,401.3729266101848,276.48676667217205,290.2749520592988,58,-544,6,4,7,5,2,3,1,0,13,20,-52,-53,-53,-53,-53,-53,-55,-56,-58,-58,0
study,76890,7,35.57351231,129.1877166,392.0,0.03172317,0.29867667,9.81922,0.0010652636,-0.0017310535,0.0009321057,35.330142076004336,202.0,6157.7320928999225,7036.464496939532,1749.42402884833,924.1822085734073,897.2212091809787,468.5011147715395,287.46699955386106,254.1255553387924,218.55788193117027,308.8094505395952,58,-544,6,4,7,5,2,3,1,0,13,20,-52,-53,-53,-53,-53,-53,-55,-56,-58,-58,0
study,76895,7,35.57358538,129.18772028,393.0,0.026934769,0.30825347,9.81922,0.00079894776,-0.0013315795,0.0,39.58607325747607,298.0,8767.5199497598,20117.726930917772,5046.808760669479,916.064111939727,1955.9521166433851,1176.6554635189875,856.7967845492021,881.211648729414,711.3826363522206,2145.9819144281096,58,-544,6,4,7,5,2,3,1,0,13,20,-52,-53,-53,-53,-53,-53,-55,-56,-58,-58,0
study,76901,7,35.57362846,129.18773928,395.0,0.026934769,0.30825347,9.81922,0.0009321057,-0.0013315795,0.002663159,42.884494753246855,477.0,21500.41547630106,7304.783903957551,3667.5598026945727,2090.3620236694323,1350.3733695716269,780.0547975766567,812.9907644069502,619.3841648074791,584.8246287678539,1345.0197162551583,58,-544,6,4,7,5,2,3,1,0,13,20,-52,-53,-53,-53,-53,-53,-55,-56,-58,-58,0
study,76906,7,35.57362846,129.18773928,400.0,0.026934769,0.30825347,9.81922,0.0005326318,-0.0019973693,0.0002663159,42.15041593149023,265.0,17594.41580730128,9244.600390379172,3629.849729341626,2008.4085478853,1489.817060105039,977.6645962885544,752.6262464838751,512.7491646163214,476.08981628112537,566.4156052032366,58,-544,6,4,7,5,2,3,1,0,13,20,-52,-53,-53,-53,-53,-53,-55,-56,-58,-58,0
study,76911,7,35.57362846,129.18773928,396.0,0.026934769,0.30825347,9.81922,0.00039947388,-0.0019973693,0.0042610546,38.48553849397288,229.0,20541.93682491327,8880.938542835775,3536.8809341314923,4040.358198069749,1346.3536093211412,1048.318886716825,894.9893204400782,575.7292167688369,622.1736249432365,1011.4352132334664,58,-544,6,4,7,5,2,3,1,0,13,20,-52,-53,-53,-53,-53,-53,-55,-56,-58,-58,0
study,76916,7,35.57339765,129.18784596,400.0,0.026934769,0.30825347,9.81922,0.0011984216,-0.0011984216,0.0009321057,38.19500052955444,211.0,8364.399680527045,7752.782708298427,2630.567811523681,1365.817749640216,1078.5736258664294,608.4458361929867,344.6611275613877,347.1523921184965,203.8955693185005,268.3610332729092,58,-544,6,4,7,5,2,3,1,0,13,20,-52,-53,-53,-53,-53,-53,-55,-56,-58,-58,0
study,76921,7,35.57339765,129.18784596,409.0,0.026934769,0.30825347,9.81922,0.00079894776,-0.0017310535,-0.0011984216,42.80159304769279,390.0,13585.350813726633,9737.1905473111,2225.94682158071,1298.8427407013417,930.024597257374,548.1791485942667,564.7250369030813,370.3126100989349,350.39655196869626,494.1454964067183,58,-544,6,4,7,5,2,3,1,0,13,20,-52,-53,-53,-53,-53,-53,-55,-56,-58,-58,0
study,76926,7,35.57335309,129.18787816,413.0,0.026934769,0.30825347,9.81922,0.0017310535,-0.0018642114,-0.003462107,41.77652418811197,305.0,7205.221535952898,6130.023954616538,2610.798066315722,893.7614083061119,738.0882712199087,429.89382652648857,263.67469695881766,244.9855165711827,223.41090353081577,362.19372558045046,58,-544,6,4,7,5,2,3,1,0,13,20,-52,-53,-53,-53,-53,-53,-55,-56,-58,-58,0
study,76931,7,35.57335309,129.18787816,414.0,0.026934769,0.30825347,9.81922,0.0013315795,-0.0011984216,-0.0035952649,43.929269205545936,352.0,26555.986399385118,7810.203628150938,3679.3183127252505,2367.84438993142,1568.9961737169278,963.4366657401592,797.6689832670739,523.3722834841798,394.1101583850316,411.6092346166607,58,-544,6,4,7,5,2,3,1,0,13,20,-52,-53,-53,-53,-53,-53,-55,-56,-58,-58,0
study,76936,7,35.57339539,129.18787925,414.0,0.026934769,0.30825347,9.81922,0.0009321057,-0.0018642114,0.0039947387,41.687593796358726,275.0,17345.66697048571,10503.870078508387,3518.0517075411176,2014.235647583017,1306.3103883275896,685.6565540759132,615.8197871663706,498.98002172941176,392.4732687045972,454.7856486738472,58,-544,6,4,7,5,2,3,1,0,13,20,-52,-53,-53,-53,-53,-53,-55,-56,-58,-58,0
study,76941,7,35.57339539,129.18787925,399.0,0.026934769,0.30825347,9.81922,0.0010652636,-0.0014647375,0.002929475,40.45542491877046,305.0,9432.7318719331,13715.370649193346,4451.280350507837,2072.9454300392617,1321.1271727254818,924.2948245042526,784.716004757006,547.1004346362092,404.38444434362447,364.2309536371428,58,-544,6,4,7,5,2,3,1,0,13,20,-52,-53,-53,-53,-53,-53,-55,-56,-58,-58,0
study,76946,7,35.57337774,129.18794928,400.0,0.026934769,0.30825347,9.81922,0.0005326318,-0.0014647375,0.0035952649,38.67396354895363,229.0,8663.022672814694,10057.95279855878,2897.8310622249683,1780.1769122959508,1343.519414382919,566.1342868106608,460.5308847627148,377.4758196402456,326.1081874007268,524.3603465951569,58,-544,6,4,7,5,2,3,1,0,13,20,-52,-53,-53,-53,-53,-53,-55,-56,-58,-58,0
study,76951,7,35.57337774,129.18794928,394.0,0.026934769,0.30825347,9.81922,0.0013315795,-0.0017310535,-0.0014647375,40.00236095556169,445.0,22327.905642922877,8164.710098566959,5742.569620430811,2365.585087952222,1691.8304225607428,964.4306848787752,767.5224992647815,867.8499059679143,917.3043788274553,1955.0169225730408,58,-544,6,4,7,5,2,3,1,0,13,20,-52,-53,-53,-53,-53,-53,-55,-56,-58,-58,0
study,76956,7,35.57340938,129.18799592,394.0,0.026934769,0.30825347,9.81922,0.0011984216,-0.0014647375,-0.0011984216,43.88116997783548,536.0,17101.297680163047,9037.162853727898,5120.410977999197,2329.120362622893,1637.3120283371572,1598.245675150869,1179.704257290863,1130.0850328080023,1177.738744450093,1973.0405884234567,58,-544,6,4,7,5,2,3,1,0,13,20,-52,-53,-53,-53,-53,-53,-55,-56,-58,-58,0
study,76961,7,35.57415466,129.18775224,392.0,0.026934769,0.30825347,9.81922,0.0009321057,-0.0017310535,-0.002530001,39.92021842909117,275.0,12602.819211765662,7584.355897695398,1688.546952742064,549.2122048172846,762.321491183961,349.49658739607275,204.1005159891749,180.00402439854628,205.10168243239903,247.11668439512704,58,-544,6,4,7,5,2,3,1,0,13,20,-52,-53,-53,-53,-53,-53,-55,-56,-58,-58,0
study,76966,7,35.57382571,129.18783125,398.0,0.026934769,0.30825347,9.81922,0.00066578976,-0.0021305273,0.0038615807,42.52394486784755,387.0,9926.67571313105,7880.161684064956,2372.011613388873,1157.7894759658325,1321.5245898098829,688.3716643529575,587.3563295674335,582.602672720083,509.7398010016765,790.5467147034873,58,-544,6,4,7,5,2,3,1,0,13,20,-52,-53,-53,-53,-53,-53,-55,-56,-58,-58,0
study,76971,7,35.57382571,129.18783125,397.0,0.026934769,0.30825347,9.81922,0.0011984216,-0.0018642114,-0.00066578976,41.73258301113479,296.0,11275.86831940596,9575.45580666524,3205.722041814505,1788.4287878872988,1292.2877877959984,757.6112373385777,460.3948670475893,422.55245512606376,397.94882433303,568.3442976493317,58,-544,6,4,7,5,2,3,1,0,13,20,-52,-53,-53,-53,-53,-53,-55,-56,-58,-58,0
study,76976,7,35.57379023,129.18784606,393.0,0.026934769,0.30825347,9.81922,0.0023968432,-0.0010652636,0.005060002,41.10674384283079,568.0,38358.39513639682,11240.672520429142,4214.025798570631,2129.1586547308343,1665.047307096909,1082.3489233194473,780.4936651726546,558.6802491563353,547.8585880524693,1684.3188823786395,60,-566,4,6,7,5,3,2,1,19,18,11,-50,-50,-50,-52,-59,-60,-61,-61,-61,-62,0
study,76981,7,35.57372987,129.18784512,400.0,0.026934769,0.30825347,9.81922,0.0005326318,-0.0018642114,0.0002663159,42.26913863849398,327.0,27961.14802308269,11389.31608942333,4991.881142134224,2084.84951952721,1539.0474663027028,1009.5029932560508,778.1773868923456,560.088315971007,423.6778185107389,361.4379014004058,66,-591,6,4,5,0,3,13,1,19,16,14,-55,-56,-57,-59,-59,-61,-61,-61,-61,-61,0
study,76986,7,35.57369773,129.18783086,392.0,0.026934769,0.30825347,9.81922,0.0002663159,-0.0019973693,-0.00013315796,42.6308077426745,337.0,29918.700846205706,12009.401435412368,4551.969258200414,2395.980887633462,1509.8655772956554,1226.7537069455366,914.34950701001,659.4583590017204,533.9328467580265,551.576183372031,67,-575,6,5,4,7,17,1,0,3,13,12,-53,-55,-56,-57,-58,-58,-59,-59,-60,-60,0
study,76991,7,35.5737249,129.18781603,392.0,0.026934769,0.30825347,9.81922,0.00039947388,-0.0017310535,0.0041278964,38.68205999790441,369.0,14736.88063440759,4282.741621312811,1922.487914723389,598.3868868496506,452.70658123468274,500.138345950407,216.0655211570669,180.17965527573492,180.2228873720146,192.49635068291516,55,-590,6,4,5,7,0,2,15,3,9,12,-55,-56,-56,-58,-60,-60,-61,-61,-61,-62,0
study,76996,7,35.5737249,129.18781603,391.0,0.026934769,0.30825347,9.81922,0.00066578976,-0.0009321057,0.0014647375,38.55280777624386,216.0,22586.54116559961,8036.746450380606,1789.67013704007,1074.6933760798572,680.7816694804378,420.1594202200276,268.4440787344675,216.49076064818377,244.0544083573253,466.2946001124864,55,-590,6,4,5,7,0,2,15,3,9,12,-55,-56,-56,-58,-60,-60,-61,-61,-61,-62,0
study,77001,7,35.57371274,129.18777357,395.0,0.026934769,0.30825347,9.81922,0.0011984216,-0.0017310535,0.0002663159,37.25145909408703,230.0,6807.951644764056,6909.031686388446,1847.9383928826203,808.803609194442,946.703013003778,350.31210126138853,255.3956449621337,246.1051441415385,182.9839012972482,445.9008092821053,55,-590,6,4,5,7,0,2,15,3,9,12,-55,-56,-56,-58,-60,-60,-61,-61,-61,-62,0
study,77006,7,35.57371274,129.18777357,413.0,0.026934769,0.29867667,9.809643,0.0009321057,-0.0017310535,0.0019973693,39.275484379337975,277.0,13612.955782485482,17045.81019171158,6475.913528746151,3695.078005548941,2204.550509378073,1186.4516321678968,1503.4849234343196,984.0907457655738,572.6160789162793,520.2081056372297,55,-590,6,4,5,7,0,2,15,3,9,12,-55,-56,-56,-58,-60,-60,-61,-61,-61,-62,0
study,77011,7,35.57373981,129.18774611,425.0,0.026934769,0.29867667,9.809643,0.0010652636,-0.0017310535,0.003328949,40.90054092852528,287.0,12943.65372319277,5946.729271607926,4497.164467143311,1904.439689123478,1110.136467722418,911.8747838012424,598.3183304131442,425.37601136959375,381.5620130788804,312.3207977398408,55,-590,6,4,5,7,0,2,15,3,9,12,-55,-56,-56,-58,-60,-60,-61,-61,-61,-62,0
study,77016,7,35.57377176,129.1877362,425.0,0.026934769,0.29867667,9.809643,0.0010652636,-0.0011984216,0.005060002,39.88567640651056,243.0,4894.939912998057,9264.758146409666,2352.144440373262,1148.2978207277465,814.3608081311086,429.9529032273699,372.4012083219396,384.10078072013584,257.4679782027954,293.25026875378103,55,-590,6,4,5,7,0,2,15,3,9,12,-55,-56,-56,-58,-60,-60,-61,-61,-61,-62,0
study,77021,7,35.57377176,129.1877362,423.0,0.026934769,0.29867667,9.809643,0.0005326318,-0.0018642114,-0.0011984216,36.76462420986268,217.0,22445.487663663826,7213.108316977181,1733.058193698169,677.944133040806,754.3261038108799,469.9607656317188,266.37961807219887,187.28995392329523,254.43143236967657,323.7866132468636,55,-590,6,4,5,7,0,2,15,3,9,12,-55,-56,-56,-58,-60,-60,-61,-61,-61,-62,0
study,77026,7,35.5734829,129.18789051,392.0,0.026934769,0.29867667,9.809643,0.00079894776,-0.0015978955,0.0038615807,37.13483792816391,225.0,5619.552359337135,5261.876135042555,1610.0877309111445,685.5345696076926,825.8696727361666,358.3532315743873,250.45430552861305,189.80050704420844,228.51445625995123,388.2119710234351,55,-590,6,4,5,7,0,2,15,3,9,12,-55,-56,-56,-58,-60,-60,-61,-61,-61,-62,0
study,77031,7,35.57338774,129.18791966,392.0,0.026934769,0.29867667,9.809643,0.0005326318,-0.0015978955,0.0035952649,38.5290165805496,314.0,6875.475734447165,11305.67615778786,2014.796920220525,1349.028829548847,845.9368593674527,496.23380532971606,358.9525095947477,234.33391872855876,332.0204341425378,540.6422699592523,55,-590,6,4,5,7,0,2,15,3,9,12,-55,-56,-56,-58,-60,-60,-61,-61,-61,-62,0
study,77036,7,35.5733291,129.18794218,391.0,0.026934769,0.29867667,9.809643,0.00079894776,-0.0019973693,0.006391582,40.729946700819085,289.0,22672.352497000924,11118.668365516114,3074.661719896478,1768.8238539627814,1051.880061852763,733.7990726439457,657.6537598408355,497.0264395443564,405.8496700624757,382.7217405714655,55,-590,6,4,5,7,0,2,15,3,9,12,-55,-56,-56,-58,-60,-60,-61,-61,-61,-62,0
study,77042,7,35.57328273,129.18796798,397.0,0.026934769,0.29867667,9.809643,0.0011984216,-0.0017310535,-0.0005326318,37.95647782207799,191.0,8820.86260788951,5277.813106523834,2402.471625844599,602.1897139105157,530.1462266430316,330.7229215036622,269.46655267378753,192.25808827851677,195.2464157479895,294.1433744949462,55,-590,6,4,5,7,0,2,15,3,9,12,-55,-56,-56,-58,-60,-60,-61,-61,-61,-62,0
study,77047,7,35.57324567,129.18793129,417.0,0.026934769,0.29867667,9.809643,0.0009321057,-0.0011984216,-0.002530001,38.47864347262985,229.0,10995.055968397972,9876.782975753584,1792.3945726710042,1110.5303383006822,638.7804061045721,377.2629481573116,417.3403685252897,357.8419749124256,284.1989028876051,541.982049602835,55,-590,6,4,5,7,0,2,15,3,9,12,-55,-56,-56,-58,-60,-60,-61,-61,-61,-62,0
study,77052,7,35.57324567,129.18793129,419.0,0.026934769,0.29867667,9.809643,0.0002663159,-0.0019973693,-0.0010652636,41.48991207769291,571.0,11675.730901767183,13395.587727148402,4020.8221832251143,2962.569668041949,2113.4196456796635,1542.3391773512058,1120.3422127230472,1088.448579742537,1216.2202799073991,1677.7659186941828,55,-590,6,4,5,7,0,2,15,3,9,12,-55,-56,-56,-58,-60,-60,-61,-61,-61,-62,0
study,77057,7,35.57317226,129.18788615,401.0,0.026934769,0.29867667,9.809643,0.00039947388,-0.0018642114,0.002530001,38.8221175018939,291.0,18264.20954946501,11291.015153294118,2515.206881524972,931.463311039396,847.1417832545864,1020.6319673260912,684.3097512445297,360.903148738351,560.6857961377978,1061.6475474467393,55,-590,6,4,5,7,0,2,15,3,9,12,-55,-56,-56,-58,-60,-60,-61,-61,-61,-62,0
study,77062,7,35.57317226,129.18788615,394.0,0.026934769,0.29867667,9.809643,0.0018642114,-0.0013315795,0.0017310535,40.00096457434036,243.0,12521.603883781878,13238.03431444732,4880.327431276917,2733.0126927060937,1709.408969757217,1170.2636753267425,972.7500129607396,763.749765155603,602.2391629420047,794.5684656214213,55,-590,6,4,5,7,0,2,15,3,9,12,-55,-56,-56,-58,-60,-60,-61,-61,-61,-62,0
study,77067,7,35.57324076,129.18784596,397.0,0.026934769,0.29867667,9.809643,0.0010652636,-0.0017310535,0.00585895,40.30135798521951,276.0,23016.873585298417,11567.14793669403,3646.6667283196057,1978.504070721696,1558.6860827159942,1032.0273603839662,692.328534301053,523.8771135115373,453.4288373112319,648.0418252978853,55,-590,6,4,5,7,0,2,15,3,9,12,-55,-56,-56,-58,-60,-60,-61,-61,-61,-62,0
study,77072,7,35.57331607,129.18784656,400.0,0.026934769,0.29867667,9.809643,0.0010652636,-0.0014647375,0.0009321057,41.75794826249175,344.0,23491.893268048632,8618.753237311468,3081.419095406854,1514.2541405499223,1016.5579136877274,723.6496819150148,491.3662043249914,458.99864210168766,624.781228439304,832.6699158074322,55,-590,6,4,5,7,0,2,15,3,9,12,-55,-56,-56,-58,-60,-60,-61,-61,-61,-62,0
study,77077,7,35.57331607,129.18784656,396.0,0.026934769,0.29867667,9.809643,0.0014647375,-0.0015978955,0.0,39.47064484465052,316.0,9001.524121057351,4055.9153956349023,3759.94453835702,1350.6930830762592,1081.0308994404725,805.6605384114936,495.4852896626609,317.7228174364334,532.7944013481044,1207.6254866994263,55,-590,6,4,5,7,0,2,15,3,9,12,-55,-56,-56,-58,-60,-60,-61,-61,-61,-62,0
study,77082,7,35.57331607,129.18784656,396.0,0.026934769,0.29867667,9.809643,0.0009321057,-0.0014647375,-0.0035952649,39.59644203456964,540.0,4836.662705009841,11216.570290034198,3338.018448598447,1490.703243582839,1004.9893263857928,773.647728516225,627.1060064955632,613.0304894971633,1277.9347054742086,2896.1354901610057,55,-590,6,4,5,7,0,2,15,3,9,12,-55,-56,-56,-58,-60,-60,-61,-61,-61,-62,0
study,77087,7,35.57328122,129.18784158,392.0,0.026934769,0.29867667,9.809643,-0.0011984216,-0.002796317,0.0042610546,35.48209176552459,167.0,9552.074607938994,5768.871876195461,2165.9677230417064,1170.5737260161377,739.690451179838,465.7811695483707,278.5935176177064,248.2049018827376,251.9863102193357,410.5441541971941,55,-590,6,4,5,7,0,2,15,3,9,12,-55,-56,-56,-58,-60,-60,-61,-61,-61,-62,0
study,77092,7,35.57324495,129.18783959,402.0,0.026934769,0.29867667,9.809643,0.0010652636,-0.0010652636,0.0049268445,39.82241405068525,236.0,17163.403378561226,10086.277386538855,3395.0545740636026,1773.9148638368783,1101.6317849714924,816.2846295708534,630.398053425388,451.39398978163,326.071697426992,379.6265326364499,55,-590,6,4,5,7,0,2,15,3,9,12,-55,-56,-56,-58,-60,-60,-61,-61,-61,-62,0
study,77097,7,35.57319444,129.1878671,404.0,0.026934769,0.29867667,9.809643,0.0002663159,-0.0022636852,0.00585895,42.227385507247234,304.0,22488.5024392035,8520.324175532367,3786.650320332368,847.4384899487645,693.3879890896063,416.0714172522904,254.58669736154303,241.78667059375007,246.8348549939533,319.8546567308251,57,-552,6,0,2,1,7,5,4,3,11,13,-53,-53,-53,-54,-54,-55,-56,-56,-59,-59,0
study,77102,7,35.57319444,129.1878671,421.0,0.026934769,0.29867667,9.809643,0.0010652636,-0.0015978955,-0.00066578976,39.517978651980165,241.0,23115.239767222996,10146.608747189366,3450.7763994632096,1973.9138320237023,1336.4370293873635,844.4406456849048,726.1013962792423,753.6575073017935,386.2675577815296,349.04261571425087,64,-551,6,0,3,4,5,2,1,7,12,11,-53,-53,-53,-54,-54,-54,-55,-56,-59,-60,0
study,77107,7,35.5733632,129.18801662,423.0,0.026934769,0.29867667,9.809643,0.0009321057,-0.0017310535,-0.00079894776,37.732121117840165,236.0,10094.049620355088,5452.238408360399,1774.7163930425816,820.9977868067322,547.458913932914,450.2960050131873,285.19331839794904,207.3854113025173,255.95804385746652,585.7428704070327,60,-581,5,4,6,7,1,0,2,3,11,13,-55,-56,-56,-56,-58,-58,-58,-58,-63,-63,0
study,77112,7,35.57338953,129.18800782,429.0,0.026934769,0.29867667,9.809643,0.00079894776,-0.0015978955,0.00039947388,38.34258141406558,244.0,14022.4335715847,8450.80375771371,1733.5874043346112,1264.9792067642568,975.1521325430236,540.9436459854361,382.4897604253861,318.4620087212453,277.7881222210145,390.9322855789663,55,-572,4,5,6,7,3,1,2,0,22,23,-53,-53,-55,-55,-56,-57,-57,-58,-64,-64,0
study,77117,7,35.57338953,129.18800782,429.0,0.026934769,0.29867667,9.809643,0.0011984216,-0.0019973693,-0.0015978955,37.09259334286025,179.0,11315.69974642172,6422.827163234048,2417.3441303261334,1213.8037544312783,820.6163590154962,385.4826296647915,284.6249816510037,185.3910946372367,274.10679058151226,413.2792525948591,55,-572,4,5,6,7,3,1,2,0,22,23,-53,-53,-55,-55,-56,-57,-57,-58,-64,-64,0
study,77122,7,35.57342645,129.18796244,429.0,0.026934769,0.29867667,9.809643,0.00066578976,-0.0018642114,0.0047936863,38.90900436047631,213.0,8373.287945941796,5989.662323271708,2210.053112954037,1130.262493797202,774.3089571617321,272.5707507474443,281.702783241944,229.1003926804719,164.16650021355613,192.37628938846876,55,-572,4,5,6,7,3,1,2,0,22,23,-53,-53,-55,-55,-56,-57,-57,-58,-64,-64,0
study,77127,7,35.57342645,129.18796244,428.0,0.026934769,0.29867667,9.809643,0.0015978955,-0.0010652636,-0.0021305273,42.78143185369544,378.0,23247.087039273145,6047.074524294336,2402.672374798567,1417.752346375874,963.0249565017943,1003.7043802448296,920.7483800635232,538.4756172155171,293.97705690358043,347.5648361806666,55,-572,4,5,6,7,3,1,2,0,22,23,-53,-53,-55,-55,-56,-57,-57,-58,-64,-64,0
study,77132,7,35.57347701,129.1879162,429.0,0.026934769,0.29867667,9.809643,0.0015978955,-0.0014647375,0.0013315795,41.67773458475633,253.0,32258.453397567988,8800.80466848673,4278.973105333624,2669.929887940697,1813.842408127278,1210.727239209932,893.8933055902111,668.3902505311122,479.30488419920647,409.5172893076764,55,-572,4,5,6,7,3,1,2,0,22,23,-53,-53,-55,-55,-56,-57,-57,-58,-64,-64,0
study,77137,7,35.57352612,129.18789722,429.0,0.026934769,0.29867667,9.809643,0.00066578976,-0.0021305273,0.0009321057,42.26325666221384,337.0,13776.608245706746,7990.677155278756,2504.4348001161325,867.8065735935747,681.5769917958086,486.8968964521439,438.0375376564055,345.5320364662075,274.69485483813617,618.5512229650967,55,-572,4,5,6,7,3,1,2,0,22,23,-53,-53,-55,-55,-56,-57,-57,-58,-64,-64,0
study,77142,7,35.57355842,129.18790597,413.0,0.026934769,0.29867667,9.809643,0.0,-0.0017310535,0.00066578976,36.91411577190938,211.0,20418.801024586952,7902.015831515158,2805.074136684262,1791.1569304907057,996.8234065555988,755.7980065374751,615.5110133376187,440.8493167715992,373.8143815860917,528.1426888907919,55,-572,4,5,6,7,3,1,2,0,22,23,-53,-53,-55,-55,-56,-57,-57,-58,-64,-64,0
study,77147,7,35.57357264,129.18795171,429.0,0.026934769,0.29867667,9.809643,0.00066578976,-0.0019973693,0.003195791,51.12684527167657,1080.0,177497.05905602826,13834.000619587085,6546.806043079423,2413.9975482332607,1889.5841037212977,1014.783761228332,825.6775539572803,696.1301163578484,664.64025373012,1285.8515106513737,55,-572,4,5,6,7,3,1,2,0,22,23,-53,-53,-55,-55,-56,-57,-57,-58,-64,-64,0
study,77152,7,35.57357264,129.18795171,429.0,0.026934769,0.29867667,9.809643,0.00066578976,-0.0011984216,0.0075900033,39.8347122222186,284.0,14264.37971170973,7209.50784379232,2987.428085537886,1242.3765136534578,833.9583874478076,595.0982008765135,397.7323427394714,345.6837234539998,321.2102758979415,303.43282699416574,55,-572,4,5,6,7,3,1,2,0,22,23,-53,-53,-55,-55,-56,-57,-57,-58,-64,-64,0
study,77157,7,35.57357264,129.18795171,429.0,0.026934769,0.29867667,9.809643,0.0010652636,-0.0017310535,0.0023968432,39.79508285727047,265.0,8678.807579373592,10476.06653586715,2839.2714192835915,1115.1074118362048,758.350084796647,559.162744686548,454.9140877139597,290.46631941857703,261.95861302108784,292.99853053808187,55,-572,4,5,6,7,3,1,2,0,22,23,-53,-53,-55,-55,-56,-57,-57,-58,-64,-64,0
study,77162,7,35.57358272,129.18798733,429.0,0.026934769,0.29867667,9.809643,0.0015978955,-0.0021305273,-0.0011984216,39.5365562163777,260.0,16202.615983506998,8880.61867219307,2482.701774274703,1492.6066737306935,1102.0413660397287,940.8250603111652,528.059786526334,329.72847320944663,328.94221714074314,330.764243902114,55,-572,4,5,6,7,3,1,2,0,22,23,-53,-53,-55,-55,-56,-57,-57,-58,-64,-64,0
study,77167,7,35.57358272,129.18798733,428.0,0.026934769,0.29867667,9.809643,0.0010652636,-0.0018642114,-0.0005326318,38.59546148442613,200.0,9926.475942817087,8475.917350032401,4372.679783918822,1933.0828478436404,1547.4144781383682,1020.459643270555,761.4363900362266,571.9868914066932,441.2794970914853,458.2541864746591,55,-572,4,5,6,7,3,1,2,0,22,23,-53,-53,-55,-55,-56,-57,-57,-58,-64,-64,0
study,77172,7,35.57365447,129.18790147,428.0,0.026934769,0.29867667,9.809643,0.0005326318,-0.0017310535,-0.0039947387,37.39336196908603,206.0,17238.93509145446,8226.536838821068,1880.7751480594184,709.5403107496054,466.2413150629784,446.7413833028591,544.1214890558252,347.4239802826393,223.56264913489517,350.4970960098559,55,-572,4,5,6,7,3,1,2,0,22,23,-53,-53,-55,-55,-56,-57,-57,-58,-64,-64,0
study,77177,7,35.57368195,129.18787342,429.0,0.026934769,0.29867667,9.809643,0.0009321057,-0.0013315795,-0.00039947388,41.45127364183188,312.0,4861.3750850215365,6452.111359669313,2361.5651197143347,467.86266320354287,526.4611945775097,296.08750757342483,241.17830030349504,213.95403102343147,213.1397081641048,281.99448318843616,55,-572,4,5,6,7,3,1,2,0,22,23,-53,-53,-55,-55,-56,-57,-57,-58,-64,-64,0
study,77182,7,35.57371054,129.18785607,395.0,0.026934769,0.29867667,9.809643,0.0009321057,-0.0015978955,0.0002663159,36.67029255997295,226.0,9629.36129566215,4345.233619397581,1809.441953367379,773.1426800905679,659.6451615018581,357.3885185607862,218.093724155811,168.23096017659813,160.8126520531314,251.86036667666667,55,-572,4,5,6,7,3,1,2,0,22,23,-53,-53,-55,-55,-56,-57,-57,-58,-64,-64,0
study,77188,7,35.57373385,129.18783481,400.0,0.026934769,0.29867667,9.809643,0.0009321057,-0.0015978955,0.002796317,37.59424265489865,219.0,6199.006627414749,7203.297799364154,1731.1784398346788,632.6162328295958,720.0807934629979,352.14779895094915,229.69070752905705,166.00776647144343,185.1617806668276,291.4758640121322,55,-572,4,5,6,7,3,1,2,0,22,23,-53,-53,-55,-55,-56,-57,-57,-58,-64,-64,0
study,77193,7,35.57374062,129.18780099,395.0,0.026934769,0.29867667,9.809643,0.0005326318,-0.0014647375,-0.00013315796,38.66241652536683,227.0,24628.901606629886,10984.131810359611,2962.503148178827,1824.252464275104,1301.3499682478798,887.7023387068587,565.6716984099077,429.4235854708373,338.7057873050585,378.037987268105,55,-572,4,5,6,7,3,1,2,0,22,23,-53,-53,-55,-55,-56,-57,-57,-58,-64,-64,0
study,77198,7,35.57374062,129.18780099,403.0,0.026934769,0.29867667,9.809643,0.00066578976,-0.0017310535,-0.0002663159,38.86577837197565,245.0,17362.431439019776,6663.3754196338,3552.4882483377555,1786.7787494054855,1415.1657321561136,777.570639397989,594.4790413667712,473.44233699571,474.3076087951812,679.3627239664071,55,-572,4,5,6,7,3,1,2,0,22,23,-53,-53,-55,-55,-56,-57,-57,-58,-64,-64,0
study,77203,7,35.57370925,129.18779507,392.0,0.026934769,0.29867667,9.809643,0.0009321057,-0.0017310535,0.0015978955,38.93200027899413,270.0,17637.893452597335,11393.76632979352,4707.819341364176,1542.0730910617444,1962.7584365776615,1189.776135556846,586.8156796080551,334.0745333298477,348.15340981895673,415.4374625472392,55,-572,4,5,6,7,3,1,2,0,22,23,-53,-53,-55,-55,-56,-57,-57,-58,-64,-64,0
study,77208,7,35.57370925,129.18779507,395.0,0.026934769,0.29867667,9.809643,0.00066578976,-0.0018642114,-0.00039947388,38.82832879143641,278.0,8936.53466981061,5806.146503278703,1437.7772355539062,523.3645637834464,543.5311621593088,320.3333182442557,298.08328534304184,209.09179036803877,150.1542259985036,422.7234006100407,55,-572,4,5,6,7,3,1,2,0,22,23,-53,-53,-55,-55,-56,-57,-57,-58,-64,-64,0
study,77213,7,35.57370925,129.18779507,402.0,0.026934769,0.29867667,9.809643,0.00079894776,-0.0018642114,-0.0002663159,37.79986796150147,220.0,6457.2008923177,5207.987813856989,3170.1082941807963,902.228230601837,698.3037253920394,383.1429070885995,246.13544398147525,256.8636812347461,202.9296256161177,265.097626278945,55,-572,4,5,6,7,3,1,2,0,22,23,-53,-53,-55,-55,-56,-57,-57,-58,-64,-64,0
study,77218,7,35.57368565,129.18777729,406.0,0.026934769,0.29867667,9.809643,0.00079894776,-0.0021305273,0.006924214,38.43543047960369,243.0,12621.368459762882,7442.602880507735,1762.0760473533528,876.3641168944739,616.2337527233756,452.0654843483897,377.9857923219353,350.9480001676533,330.73465503020645,583.0168528068334,62,-568,7,6,4,5,11,12,13,10,17,19,-52,-53,-54,-54,-57,-57,-58,-59,-62,-62,0
study,77223,7,35.57368565,129.18777729,399.0,0.026934769,0.29867667,9.809643,0.0015978955,-0.0018642114,0.0018642114,35.82738536289037,450.0,17422.774305355077,9268.8295277608,2127.501203429829,911.3158298609892,534.6635646394529,496.92080239335314,308.71852867440776,207.94028906681567,309.7421958096306,626.3801730417224,65,-565,4,5,6,7,11,13,12,10,0,1,-55,-55,-56,-56,-57,-57,-57,-57,-57,-58,0
study,77228,7,35.57369462,129.18771924,392.0,0.026934769,0.29867667,9.809643,-0.0002663159,-0.0013315795,-0.00039947388,39.58265626756179,651.0,15126.675285455734,10448.005842542096,4351.338635140759,1486.0482678139515,1137.405446709025,729.4937425912549,888.6922901059983,678.471782831358,1128.5946865509134,2413.82737995964,62,-558,4,6,7,5,1,0,2,3,11,13,-54,-54,-54,-54,-55,-55,-55,-55,-60,-62,0
study,77233,7,35.57370424,129.1876865,394.0,0.026934769,0.29867667,9.809643,0.00039947388,-0.002929475,0.0021305273,40.26512425869648,275.0,22934.559881380133,9328.690204721715,2371.9470329451583,1393.218489189905,1046.5388930740571,741.6874216743561,529.6038872348938,296.9173262591292,277.99406847318045,357.0670966008494,58,-531,1,0,3,2,6,4,7,5,8,13,-47,-47,-47,-49,-52,-55,-55,-56,-61,-62,0
study,77238,7,35.57367957,129.18767157,392.0,0.026934769,0.29867667,9.809643,0.00066578976,-0.0015978955,0.0023968432,43.44531170611887,2228.0,7575.6745074453775,6995.8032809735405,2297.88935514522,679.4445971541091,661.9606628160506,271.4277375832014,240.7218975356004,260.13892078138093,255.67889242866747,368.4811515463106,58,-531,1,0,3,2,6,4,7,5,8,13,-47,-47,-47,-49,-52,-55,-55,-56,-61,-62,0
study,77243,7,35.57364462,129.18767042,394.0,0.026934769,0.29867667,9.809643,0.00079894776,-0.0019973693,-0.002796317,45.146360353493165,468.0,20429.830614732477,8481.069893409802,3099.776638662257,2175.504507949221,1292.525482628245,1140.6623315522206,844.0344955458418,728.550992332642,884.7626913177226,2352.035953458173,58,-531,1,0,3,2,6,4,7,5,8,13,-47,-47,-47,-49,-52,-55,-55,-56,-61,-62,0
study,77248,7,35.57364462,129.18767042,398.0,0.026934769,0.29867667,9.809643,0.0013315795,-0.0017310535,0.0,42.35772935028046,281.0,14652.90451425653,6611.388635111124,3948.147656410312,1453.0021922406877,1078.1093012996678,618.25941149332,513.5201490641946,390.2662565824751,276.6329130629001,312.3161677229093,58,-531,1,0,3,2,6,4,7,5,8,13,-47,-47,-47,-49,-52,-55,-55,-56,-61,-62,0
study,77253,7,35.57362328,129.18762098,394.0,0.026934769,0.29867667,9.809643,0.003462107,-0.00066578976,-0.0009321057,41.72178412646088,270.0,5424.828491270054,5784.421738969513,3846.52996805242,1528.6104869333033,1241.3102743559537,868.3884592957257,640.8691183022377,499.3237515393266,333.0160446727767,321.6718933882304,58,-531,1,0,3,2,6,4,7,5,8,13,-47,-47,-47,-49,-52,-55,-55,-56,-61,-62,0
study,77258,7,35.57362328,129.18762098,392.0,0.026934769,0.29867667,9.809643,0.00066578976,-0.0015978955,0.00066578976,35.27106695581645,188.0,4518.929020104866,7406.338313031473,1553.4473055585704,814.8368011663648,590.6813293595088,450.2067573605824,245.72955000053017,163.56279574545604,194.65063855637453,356.54276644185387,58,-531,1,0,3,2,6,4,7,5,8,13,-47,-47,-47,-49,-52,-55,-55,-56,-61,-62,0
study,77263,7,35.57359137,129.18762276,392.0,0.026934769,0.29867667,9.809643,0.00079894776,-0.0018642114,0.0035952649,39.57113030360263,584.0,16248.668752918838,5863.478583816656,2092.6695696722168,636.357686047989,686.1447920888527,363.80710261474405,277.9098639269534,215.86945495196977,198.0166160359801,364.10378048761135,58,-531,1,0,3,2,6,4,7,5,8,13,-47,-47,-47,-49,-52,-55,-55,-56,-61,-62,0
study,77268,7,35.57355318,129.18769822,402.0,0.026934769,0.29867667,9.809643,-0.00013315796,-0.0018642114,0.0054594763,40.165158196419256,264.0,18448.40815546602,7923.291001684575,2102.79544396845,1134.7823629593995,1018.4803899620082,431.23007919474406,425.5533352884111,357.64934960910733,349.585237952879,320.4775303492719,58,-531,1,0,3,2,6,4,7,5,8,13,-47,-47,-47,-49,-52,-55,-55,-56,-61,-62,0
study,77273,7,35.57351711,129.18775572,393.0,0.026934769,0.29867667,9.809643,0.0009321057,-0.0011984216,0.00066578976,40.74136977477068,384.0,10333.221873527553,6169.382376512565,2017.274342732828,668.7211884740912,849.4371549369258,400.9366140468546,356.83719130488697,555.7730332177969,1685.4923567853746,1123.316353676538,58,-531,1,0,3,2,6,4,7,5,8,13,-47,-47,-47,-49,-52,-55,-55,-56,-61,-62,0
study,77278,7,35.57351711,129.18775572,393.0,0.026934769,0.29867667,9.809643,0.00079894776,-0.0018642114,-0.0002663159,37.73714651497344,222.0,6803.274076657586,6623.585570204979,1677.5047909392315,1505.6806231783423,648.5104192687817,382.4345024071546,310.84440360548484,197.30568355609208,185.68142468937165,273.8141927819728,58,-531,1,0,3,2,6,4,7,5,8,13,-47,-47,-47,-49,-52,-55,-55,-56,-61,-62,0
study,77283,7,35.57346804,129.18777955,400.0,0.026934769,0.29867667,9.809643,0.0005326318,-0.0013315795,-0.0009321057,37.81444371990139,174.0,8770.945938395156,6497.593405032359,3456.224411643272,1815.4522872755124,884.4314698677478,748.935892430846,579.281111296525,380.157745465767,306.13140480418895,314.96394580275324,58,-531,1,0,3,2,6,4,7,5,8,13,-47,-47,-47,-49,-52,-55,-55,-56,-61,-62,0
study,77288,7,35.57346804,129.18777955,397.0,0.026934769,0.29867667,9.809643,0.0005326318,-0.0011984216,-0.0015978955,38.16692894033436,181.0,14203.426040624576,5982.270051487953,3092.2732635601405,773.6104645353959,827.2273039877755,383.7677138562725,272.23656177198984,195.2650174205877,196.8501297567818,233.00853306507844,58,-531,1,0,3,2,6,4,7,5,8,13,-47,-47,-47,-49,-52,-55,-55,-56,-61,-62,0
study,77293,7,35.57346804,129.18777955,405.0,0.026934769,0.29867667,9.809643,0.00013315796,-0.0017310535,0.0002663159,40.56494923896452,291.0,13915.464768243452,10011.586697787938,3110.2764882126608,836.6500306284973,616.8977902981081,879.8609079036036,1164.810337240299,919.557761871184,853.6729949305283,1306.2286321733127,58,-531,1,0,3,2,6,4,7,5,8,13,-47,-47,-47,-49,-52,-55,-55,-56,-61,-62,0
study,77298,7,35.57345101,129.18785517,398.0,0.026934769,0.29867667,9.809643,0.002530001,-0.0023968432,-0.008655267,39.85050452978851,268.0,14470.15146884509,17721.464461554908,5177.758453292288,2192.2779443648246,1593.480126466453,1130.0399366625231,809.6192030198681,612.8949534891856,447.65563994013553,470.3608740836349,58,-531,1,0,3,2,6,4,7,5,8,13,-47,-47,-47,-49,-52,-55,-55,-56,-61,-62,0
study,77303,7,35.57340489,129.18787605,401.0,0.026934769,0.29867667,9.809643,0.0013315795,-0.0018642114,0.0045273704,39.90641181325584,260.0,23781.930113538638,9140.80019467403,3840.252017764542,4754.841579606815,2714.7242885220244,1999.305836326125,492.1820802394664,278.35780704466686,430.664742140583,888.9346775633641,58,-531,1,0,3,2,6,4,7,5,8,13,-47,-47,-47,-49,-52,-55,-55,-56,-61,-62,0
study,77308,7,35.57340489,129.18787605,402.0,0.026934769,0.29867667,9.809643,0.00079894776,-0.0018642114,0.0038615807,39.06204464900216,267.0,15810.468534973974,7399.922517028707,2405.6532902032945,1110.792335160831,962.3170421229444,542.1387295310589,451.42619304536913,321.5462255872525,273.70891024475185,417.5719628403738,58,-531,1,0,3,2,6,4,7,5,8,13,-47,-47,-47,-49,-52,-55,-55,-56,-61,-62,0
study,77313,7,35.57341624,129.18795549,416.0,0.026934769,0.29867667,9.809643,0.0011984216,-0.0011984216,0.005326318,36.51434189242783,208.0,11565.163056283023,6739.912655599333,1798.3193559954484,814.5674131938298,726.5962534521232,498.3505266763016,306.3070049282367,178.41723628653193,169.2064377146842,234.9287315707942,58,-531,1,0,3,2,6,4,7,5,8,13,-47,-47,-47,-49,-52,-55,-55,-56,-61,-62,0
study,77318,7,35.57364621,129.18796852,416.0,0.026934769,0.29867667,9.809643,0.0010652636,-0.0010652636,0.0013315795,41.879940639076864,314.0,14741.490211023163,9994.658386423813,2135.6774914748853,1581.2227957337427,1158.1754018821778,671.1037104796612,447.1181718337353,312.52969711217906,267.85615067662394,324.436389047794,58,-531,1,0,3,2,6,4,7,5,8,13,-47,-47,-47,-49,-52,-55,-55,-56,-61,-62,0
study,77323,7,35.57394172,129.18786626,426.0,0.026934769,0.29867667,9.809643,0.0010652636,-0.0013315795,0.003195791,41.12203401988032,312.0,16577.667461730744,8124.858616699459,2409.371266598215,1133.7906085833124,919.9433487601008,490.9648902770424,362.4986657457604,256.78214439218027,254.56380569510037,252.8101850775456,58,-531,1,0,3,2,6,4,7,5,8,13,-47,-47,-47,-49,-52,-55,-55,-56,-61,-62,0
study,77328,7,35.57441683,129.18768068,426.0,0.026934769,0.29867667,9.809643,0.0010652636,-0.0014647375,0.00585895,39.36395621974148,339.0,13524.472625772536,6517.939816151124,3677.643373851999,1668.9066432241978,775.2767499203845,913.3557289800972,553.3847393925162,371.5824570860975,258.38133071202054,374.89080670803634,58,-531,1,0,3,2,6,4,7,5,8,13,-47,-47,-47,-49,-52,-55,-55,-56,-61,-62,0
study,77333,7,35.57441683,129.18768068,426.0,0.026934769,0.29867667,9.809643,0.00079894776,-0.0014647375,0.0061252657,39.6428052300093,222.0,10034.609634407305,9863.22772700262,3914.4364557739673,1840.2301856690256,1438.4808737762403,980.2765903686536,669.206934077677,464.15560044608776,341.9336296698768,336.89836855315536,58,-531,1,0,3,2,6,4,7,5,8,13,-47,-47,-47,-49,-52,-55,-55,-56,-61,-62,0
study,77339,7,35.57414755,129.18773797,426.0,0.026934769,0.29867667,9.809643,0.0017310535,-0.0010652636,0.0017310535,43.7241539594736,583.0,33878.46516698601,22814.979813053877,4554.963550516968,1077.788102564541,549.0393815140548,326.12815047711354,240.42660964697583,268.041274825943,253.2543393186616,312.788658881423,64,-552,4,7,6,5,12,19,11,13,10,18,-48,-48,-49,-49,-59,-59,-60,-60,-60,-60,0
study,77344,7,35.57410315,129.18774716,422.0,0.026934769,0.29867667,9.809643,0.00066578976,-0.0017310535,-0.0005326318,38.7716878700634,243.0,15275.76952099655,12258.549962764702,2990.518816457788,1878.630454865459,1276.73976185017,851.8569984054716,627.7462594982611,469.8211503686924,343.2557179611617,373.2808100164273,61,-554,4,6,7,5,19,18,16,14,17,15,-48,-48,-49,-50,-59,-59,-59,-59,-61,-62,0
study,77349,7,35.57404419,129.18777029,428.0,0.036511578,0.30346507,9.776124,-0.00013315796,-0.0017310535,-0.00013315796,42.82288444389482,410.0,37314.15931050876,11238.606332375388,4760.617223200338,3441.8818094409025,2279.350547069304,2012.8968631270848,1641.7097005100345,1518.558112867909,2171.722612877839,3618.3202399492334,58,-548,4,6,7,5,0,3,2,19,1,18,-48,-48,-49,-49,-58,-58,-59,-59,-60,-60,0
study,77354,7,35.57404419,129.18777029,429.0,0.036511578,0.30346507,9.776124,0.0010652636,-0.0013315795,0.0047936863,40.83502479858065,259.0,12173.98966021132,4682.068056612887,2919.303272221621,835.8812043017994,418.80081564743546,436.97078710676567,421.8428514942792,376.82733022167673,271.00176278434657,835.8811884381308,59,-543,7,5,4,6,0,2,3,1,19,18,-47,-47,-48,-48,-58,-58,-58,-59,-60,-60,0
study,77359,7,35.57401962,129.1877849,430.0,0.036511578,0.30346507,9.776124,0.0011984216,-0.0015978955,0.0041278964,40.83566572409512,265.0,15821.26321547231,6958.973088866303,3075.709221011508,1298.447457322807,639.6216539286686,825.5835301296574,513.8117800213358,406.4035150694842,279.10398283177386,473.4265814230221,59,-543,7,5,4,6,0,2,3,1,19,18,-47,-47,-48,-48,-58,-58,-58,-59,-60,-60,0
study,77364,7,35.57396253,129.18780955,397.0,0.036511578,0.30346507,9.776124,0.0,-0.002530001,-0.0075900033,39.528274164904616,251.0,9613.734557261334,8159.942585684976,2643.5466215001065,1688.3691905310268,1188.5399807570832,805.38908812007,612.4667753473781,495.0166515955005,358.64353656283544,484.5195083562716,59,-543,7,5,4,6,0,2,3,1,19,18,-47,-47,-48,-48,-58,-58,-58,-59,-60,-60,0
study,77369,7,35.57396253,129.18780955,404.0,0.036511578,0.30346507,9.776124,0.0009321057,-0.0014647375,0.0042610546,37.14175923304333,202.0,7910.059958709535,3584.688406009252,1624.0286147727895,756.5023383614651,616.7292813836137,400.0168182554039,282.32120081377235,212.4885271336288,197.8952761151509,276.9924043942706,59,-543,7,5,4,6,0,2,3,1,19,18,-47,-47,-48,-48,-58,-58,-58,-59,-60,-60,0
study,77374,7,35.57396253,129.18780955,403.0,0.022146367,0.31783026,9.804854,0.0010652636,-0.0018642114,-0.0005326318,36.53501058930664,181.0,15437.730259667824,6469.363765063048,4059.942913726281,1411.495249899216,931.6443728250216,550.4095241915511,377.343906497646,349.3106742422286,269.9785861511167,581.5390946993265,59,-543,7,5,4,6,0,2,3,1,19,18,-47,-47,-48,-48,-58,-58,-58,-59,-60,-60,0
study,77379,7,35.57396253,129.18780955,391.0,0.022146367,0.31783026,9.804854,0.0010652636,-0.0017310535,-0.0039947387,38.21516452700586,213.0,14125.173370373335,8911.741619697768,1772.5685970284203,859.8861681552794,660.7660492856861,429.85594667086826,234.3893792705685,269.63788138780524,230.95805910660764,464.6154037204683,59,-543,7,5,4,6,0,2,3,1,19,18,-47,-47,-48,-48,-58,-58,-58,-59,-60,-60,0
study,77384,7,35.57396253,129.18780955,407.0,0.022146367,0.31783026,9.804854,0.0009321057,-0.0021305273,0.0013315795,43.67372750110388,307.0,16097.06755147441,8527.739108574806,2980.139237135389,1131.165515267918,756.230275934889,592.7128453313154,425.4898174738757,292.34345056990594,280.48119937772515,342.1802117444014,59,-543,7,5,4,6,0,2,3,1,19,18,-47,-47,-48,-48,-58,-58,-58,-59,-60,-60,0
study,77389,7,35.57393338,129.18782091,404.0,0.022146367,0.31783026,9.804854,0.0011984216,-0.0017310535,-0.0037284228,41.949074320420536,268.0,14098.700890753764,7701.926885644917,1699.6469650400416,785.5203130034774,557.2696387445902,370.3206665034404,424.90352683900255,244.36953502268292,238.101674318906,319.3361332430301,59,-543,7,5,4,6,0,2,3,1,19,18,-47,-47,-48,-48,-58,-58,-58,-59,-60,-60,0
study,77394,7,35.57393338,129.18782091,406.0,0.022146367,0.31783026,9.804854,0.0011984216,-0.0014647375,-0.002663159,39.550980567724594,227.0,12219.062604401077,4575.11621847105,2343.0027256838985,1521.417052432756,930.1033985989928,562.8100261376113,356.0075804372415,271.35538011493463,259.30469370362016,264.4572285228366,59,-543,7,5,4,6,0,2,3,1,19,18,-47,-47,-48,-48,-58,-58,-58,-59,-60,-60,0
study,77399,7,35.57393338,129.18782091,405.0,0.022146367,0.31783026,9.804854,0.00066578976,-0.0017310535,0.005592634,38.67389645498625,217.0,14824.127517608784,8533.869301885275,5551.170095699324,1757.0799520383052,1540.1922842338984,863.6513970641065,603.8707948381049,471.68760347222826,363.2919429312983,306.30403642231374,59,-543,7,5,4,6,0,2,3,1,19,18,-47,-47,-48,-48,-58,-58,-58,-59,-60,-60,0
study,77404,7,35.57393338,129.18782091,401.0,0.022146367,0.31783026,9.804854,0.00039947388,-0.0018642114,0.0030626329,38.47069746205055,250.0,14541.958805740349,8612.122594958992,2480.8971710101887,1159.9203227294597,808.1715973747622,554.0399240855368,361.2223674538744,264.3237269795134,240.339396315902,204.27489077095743,59,-543,7,5,4,6,0,2,3,1,19,18,-47,-47,-48,-48,-58,-58,-58,-59,-60,-60,0
study,77409,7,35.57393338,129.18782091,404.0,0.022146367,0.31783026,9.804854,0.00066578976,-0.0017310535,0.00652474,40.9611495333438,269.0,15229.00953287509,9419.894757563385,4465.9715656614535,2708.6646837049097,1899.3933128984347,1213.542752416793,929.5958950982432,664.7604929544055,469.505718874316,396.8439853482845,59,-543,7,5,4,6,0,2,3,1,19,18,-47,-47,-48,-48,-58,-58,-58,-59,-60,-60,0
study,77414,7,35.57393338,129.18782091,424.0,0.022146367,0.31783026,9.804854,0.0009321057,-0.0019973693,0.0019973693,40.341445352106966,371.0,16132.476862202337,10631.703074084133,3446.986858957152,2293.740561532971,1457.4873625434102,864.159371328947,618.8187933812492,485.08751316307286,436.4840341734848,415.732130653031,59,-543,7,5,4,6,0,2,3,1,19,18,-47,-47,-48,-48,-58,-58,-58,-59,-60,-60,0
study,77419,7,35.57393338,129.18782091,424.0,0.022146367,0.31783026,9.804854,0.00039947388,-0.0014647375,0.0002663159,42.04796442673527,371.0,24232.95262749414,9270.0376892356,3115.3029665324398,1603.5175733374408,1059.1054839183198,824.551690066463,575.0239328100255,450.1521785976603,442.61308290946937,334.3709947167616,59,-543,7,5,4,6,0,2,3,1,19,18,-47,-47,-48,-48,-58,-58,-58,-59,-60,-60,0
study,77424,7,35.57393338,129.18782091,424.0,0.022146367,0.31783026,9.804854,-0.0002663159,-0.0014647375,-0.0018642114,39.92922793245891,252.0,20135.64586255289,6456.683772125241,2878.37723547295,1406.449178235316,1180.7641125356683,795.4344515525315,736.6190695723583,665.6609658354878,665.5941277811023,669.270172299314,59,-543,7,5,4,6,0,2,3,1,19,18,-47,-47,-48,-48,-58,-58,-58,-59,-60,-60,0
study,77429,7,35.57393338,129.18782091,426.0,0.022146367,0.31783026,9.804854,0.0010652636,-0.0011984216,0.003328949,38.67710577292253,213.0,12816.705301940472,9177.300705479973,2406.595871873187,1322.9364434341978,1055.9035754199026,528.4258720410145,484.8830881076363,378.1880562164129,295.067691977384,295.22470877642513,59,-543,7,5,4,6,0,2,3,1,19,18,-47,-47,-48,-48,-58,-58,-58,-59,-60,-60,0
study,77434,7,35.57388631,129.18782649,425.0,0.03172317,0.29388827,9.81922,0.00039947388,-0.0018642114,0.005060002,42.21679055644899,354.0,11254.1654050385,9378.65956441998,1915.9107745765807,851.2274727446488,451.95964567625606,354.0289747647792,222.38156094236905,228.02205325963163,263.86313990862914,476.47884178644887,59,-543,7,5,4,6,0,2,3,1,19,18,-47,-47,-48,-48,-58,-58,-58,-59,-60,-60,0
study,77439,7,35.57388631,129.18782649,425.0,0.022146367,0.30346507,9.814431,0.0005326318,-0.0015978955,0.003328949,43.25569599330908,424.0,16966.089559350363,24242.83152290823,5608.652558512064,2173.813416505092,1455.7110268062804,946.4492321151,892.0486486143935,857.3677582787046,583.9488268396957,1777.968566879926,59,-543,7,5,4,6,0,2,3,1,19,18,-47,-47,-48,-48,-58,-58,-58,-59,-60,-60,0
study,77444,7,35.57386627,129.18785331,424.0,0.022146367,0.30346507,9.814431,0.0010652636,-0.0011984216,0.0013315795,40.331728488767695,452.0,10598.561731603102,9280.281926058822,2538.7524130854,2720.264236920017,1937.1452829229072,2523.444102377762,1814.6424139050105,1395.609741465768,1509.5017794246264,3111.444391591235,59,-543,7,5,4,6,0,2,3,1,19,18,-47,-47,-48,-48,-58,-58,-58,-59,-60,-60,0
study,77449,7,35.57386627,129.18785331,424.0,0.022146367,0.30346507,9.814431,0.0002663159,-0.0017310535,-0.0037284228,41.68238662129286,339.0,29328.588024579032,7179.022597010402,2287.30074755078,1230.655131466968,756.9490328792523,360.47215710837537,199.57812419291088,273.60995355105933,301.44865669962525,343.2309177627154,59,-543,7,5,4,6,0,2,3,1,19,18,-47,-47,-48,-48,-58,-58,-58,-59,-60,-60,0
study,77454,7,35.57386627,129.18785331,406.0,0.026934769,0.29867667,9.814431,0.00079894776,-0.0013315795,-0.003462107,41.47764027773674,261.0,9502.317057755929,2595.768299595062,2326.916440938804,1378.7691044037294,868.1322882382461,539.7702757594179,372.4548220657946,296.9944710496048,260.1111135196087,231.5373261567325,59,-543,7,5,4,6,0,2,3,1,19,18,-47,-47,-48,-48,-58,-58,-58,-59,-60,-60,0
study,77459,7,35.57386627,129.18785331,396.0,0.026934769,0.29867667,9.814431,0.0013315795,-0.0014647375,0.00013315796,38.57368191369503,226.0,13873.524877329128,7609.918428227812,3115.0041688159035,1376.127263463709,1175.812706333959,869.4236279699338,544.6099369483162,394.5218406231514,362.4195943856888,253.03748932443517,61,-547,4,6,1,0,2,3,12,11,13,19,-48,-49,-53,-54,-54,-54,-58,-59,-59,-59,0
study,77464,7,35.57386627,129.18785331,390.0,0.026934769,0.29867667,9.814431,0.0011984216,-0.00066578976,-0.0041278964,38.673476271888745,231.0,12343.687566510776,6050.059611066284,4065.173804461235,1976.6910127437816,1701.6091066375209,763.1128914517209,1541.9238702228035,524.8661177740717,344.69670962165407,371.9325246207316,62,-524,7,5,4,6,1,0,2,3,11,13,-46,-47,-48,-48,-54,-54,-54,-55,-59,-59,0
study,77469,7,35.57384019,129.18780665,427.0,0.026934769,0.29867667,9.814431,0.00039947388,-0.0018642114,-0.0010652636,37.24011053799279,238.0,8037.961338317742,7557.868079896456,2432.3129566406697,1291.9812905785973,1027.5795664262807,833.8987292830907,572.8769592742647,567.0762532768001,842.2690199127687,791.4885663096526,59,-533,6,5,4,7,0,19,2,3,18,16,-46,-46,-47,-48,-57,-57,-58,-58,-58,-58,0
study,77474,7,35.57380577,129.18779942,413.0,0.026934769,0.29867667,9.814431,0.0005326318,-0.0015978955,0.0015978955,41.00542830785821,317.0,10228.641252567102,5931.589123986583,2168.7600072218465,470.0132251264192,514.5406788622819,320.14715539584944,245.9215419328866,253.73752622637045,177.76030428236808,241.64600646251105,55,-522,4,7,5,6,1,2,3,0,13,10,-47,-47,-48,-49,-53,-54,-54,-55,-57,-58,0
study,77480,7,35.57380577,129.18779942,404.0,0.026934769,0.29867667,9.814431,0.0005326318,-0.0018642114,-0.0013315795,39.06266630658359,217.0,17651.069992440727,4237.548321218628,2126.653770776305,1313.3343760995522,933.387798786268,518.5753705761714,395.3114377347247,291.7822843134899,264.8914879084262,253.37876206173155,55,-522,4,7,5,6,1,2,3,0,13,10,-47,-47,-48,-49,-53,-54,-54,-55,-57,-58,0
study,77485,7,35.57380577,129.18779942,392.0,0.026934769,0.29867667,9.814431,0.0009321057,-0.0011984216,0.0010652636,42.37012104174994,821.0,17235.706330765228,8765.929153541985,3231.949680896847,1083.3862999178318,1168.7191095171224,592.6097914907965,756.456838558562,567.5169664446045,1760.2926039040267,6416.158991481399,55,-522,4,7,5,6,1,2,3,0,13,10,-47,-47,-48,-49,-53,-54,-54,-55,-57,-58,0
study,77490,7,35.57375534,129.18784196,399.0,0.026934769,0.29867667,9.814431,0.0015978955,-0.0014647375,-0.008655267,38.61495256105604,240.0,13818.562831113682,8196.34863416826,2305.9764277249838,1070.4254268258294,1070.9138962671957,539.2775101642077,354.9960513350288,301.2530987021639,212.702382627641,218.5282805166552,55,-522,4,7,5,6,1,2,3,0,13,10,-47,-47,-48,-49,-53,-54,-54,-55,-57,-58,0
study,77495,7,35.57375534,129.18784196,403.0,0.026934769,0.29867667,9.814431,0.0010652636,-0.0009321057,-0.002663159,37.3518784313932,184.0,11200.432325091004,3941.737475639065,2393.0449546781856,946.7431045174616,713.8288046726881,518.0196455793371,428.40208072376913,308.21747482372643,254.9107537402494,237.17358829381865,55,-522,4,7,5,6,1,2,3,0,13,10,-47,-47,-48,-49,-53,-54,-54,-55,-57,-58,0
study,77500,7,35.57375534,129.18784196,403.0,0.026934769,0.29867667,9.814431,0.0018642114,-0.0014647375,-0.005992108,38.47626926726197,206.0,6068.310212784687,10795.322453437377,2539.3200546110925,1139.5558629002785,1084.9011965382374,537.3413657822638,429.6170244721381,304.3651378361472,249.3285143168022,415.6937078689088,55,-522,4,7,5,6,1,2,3,0,13,10,-47,-47,-48,-49,-53,-54,-54,-55,-57,-58,0
study,77505,7,35.57375216,129.18787992,395.0,0.026934769,0.29867667,9.814431,0.0010652636,-0.0015978955,-0.0002663159,40.31990214812623,231.0,14228.219366156518,3267.5569766172844,1547.2451204468043,641.0432724676042,445.2635397883973,312.70756922986664,279.0157282589482,176.4716481467444,185.98303708617735,228.26524030222555,55,-522,4,7,5,6,1,2,3,0,13,10,-47,-47,-48,-49,-53,-54,-54,-55,-57,-58,0
study,77510,7,35.5737793,129.18791086,394.0,0.026934769,0.29867667,9.814431,0.0009321057,-0.0015978955,0.0030626329,39.18632447421188,255.0,17118.23794602695,3912.078058235452,3200.3220117373985,1306.4712165155356,812.3945592592763,619.1754518378987,345.5528081454261,623.6535871620703,911.981106348038,403.75701690834575,55,-522,4,7,5,6,1,2,3,0,13,10,-47,-47,-48,-49,-53,-54,-54,-55,-57,-58,0
study,77515,7,35.5737793,129.18791086,394.0,0.026934769,0.29867667,9.814431,0.0009321057,-0.0011984216,0.0045273704,41.60728675746837,294.0,12348.811907013309,9080.350595319494,2772.0071333523274,1127.924956874926,967.7546431334116,560.4347044735952,402.6659421934086,298.9480687153238,251.79082265661407,292.44445317936874,55,-522,4,7,5,6,1,2,3,0,13,10,-47,-47,-48,-49,-53,-54,-54,-55,-57,-58,0
study,77520,7,35.57377979,129.18786718,399.0,0.026934769,0.29867667,9.814431,0.0009321057,-0.0017310535,-0.00079894776,38.572895441772,202.0,18762.821044431625,6218.245357239759,3539.041282094258,1221.802590187604,980.9647146569638,674.7413414936797,401.8207932553164,339.0857088328299,282.2929394022503,329.70349677867574,55,-522,4,7,5,6,1,2,3,0,13,10,-47,-47,-48,-49,-53,-54,-54,-55,-57,-58,0
study,77525,7,35.57377979,129.18786718,395.0,0.026934769,0.29867667,9.814431,0.0010652636,-0.0011984216,0.008255793,36.50281606435745,218.0,10636.666015213896,5085.780315664968,2476.6563365637176,1276.0070046387818,1020.0227386158896,502.4796344719685,495.3696316220862,318.4886417864417,281.0589675274948,350.1285869473588,55,-522,4,7,5,6,1,2,3,0,13,10,-47,-47,-48,-49,-53,-54,-54,-55,-57,-58,0
study,77530,7,35.57384027,129.18783996,394.0,0.026934769,0.29867667,9.814431,0.00079894776,-0.0010652636,0.003195791,38.27029883977068,213.0,21844.295202189427,7795.772491772181,1613.8172986881154,1019.9945495279884,1218.1104875466438,658.6835592891821,484.7788989736879,292.6630988752462,246.9137322374565,287.3022496749644,55,-522,4,7,5,6,1,2,3,0,13,10,-47,-47,-48,-49,-53,-54,-54,-55,-57,-58,0
study,77535,7,35.57384027,129.18783996,394.0,0.026934769,0.29867667,9.814431,-0.002663159,-0.002530001,0.0,36.72167799167235,223.0,22933.665185637197,10414.06793263119,3081.760902995285,1808.4014873775368,1497.1138826478848,890.0612757968529,689.147332577893,442.1903586445263,318.5444052529303,307.39221419404004,55,-522,4,7,5,6,1,2,3,0,13,10,-47,-47,-48,-49,-53,-54,-54,-55,-57,-58,0
study,77540,7,35.57379029,129.18782979,398.0,0.026934769,0.29867667,9.814431,0.00066578976,-0.0015978955,0.008522109,39.18664013586811,241.0,21226.743382805216,8585.939862686108,1491.471732098407,863.7978406394049,510.1177008712228,410.83486436377456,269.67058175982083,196.6518355145128,190.22773419118263,282.12317772365816,55,-522,4,7,5,6,1,2,3,0,13,10,-47,-47,-48,-49,-53,-54,-54,-55,-57,-58,0
