category,sec,week,latitude,longitude,lux,accelx,accely,accelz,gyroX,gyroY,gyroZ,decibel,peak,mag1,mag2,mag3,mag4,mag5,mag6,mag7,mag8,mag9,mag0,bssidcnt,rssisum,idx1,idx2,idx3,idx4,idx5,idx6,idx7,idx8,idx9,idx0,rssi1,rssi2,rssi3,rssi4,rssi5,rssi6,rssi7,rssi8,rssi9,rssi0,inclass
sleep,16785,7,35.56787495,129.24558378,0.0,0.0,0.0,0.0,0.00079894776,-0.0005326318,0.0030626329,21.101047359530355,41.0,1417.811908191948,447.2829111804196,390.3368381273029,168.30475332620082,163.34117174285882,146.92022570876452,123.95820174768204,133.59109252769687,132.42213180758347,156.94339906454135,0,0,0,0,0,0,0,0,0,0,0,0,0,0,0,0,0,0,0,0,0,0,0
sleep,16790,7,35.56787495,129.24558378,0.0,0.0,0.0,0.0,0.00066578976,-0.00079894776,0.002663159,22.552805834225538,45.0,1210.8197946072064,543.6372072348199,299.8391218600662,287.1957356234078,190.6152004933253,141.147197789588,165.2720027878754,145.62536014689758,145.73176032201923,222.1842845520234,15,-652,0,1,2,3,4,5,6,7,8,9,-31,-39,-41,-47,-72,-83,-84,-84,-85,-86,0
sleep,16795,7,35.56787495,129.24558378,0.0,0.0,0.0,0.0,0.0009321057,-0.0018642114,0.005326318,27.81180761048453,96.0,2201.1205774135,1072.1102750705388,910.4737988110428,449.946327905472,475.3250921103197,299.5536570573456,351.6802810514772,242.57548790113643,462.35640679375024,469.0962067707876,10,-672,0,2,1,3,4,6,10,8,11,12,-35,-43,-44,-45,-77,-81,-83,-86,-88,-90,0
sleep,16800,7,35.56787495,129.24558378,0.0,0.0,0.0,0.0,0.0014647375,-0.0011984216,0.0043942127,22.48026662635226,43.0,1347.4635073808608,711.20221240581,511.8635310373897,329.8675073008333,234.67104387319557,160.43143390221044,198.17702617618528,168.7808129349646,147.4609248094237,172.41591797424874,10,-672,0,2,1,3,4,6,10,8,11,12,-35,-43,-44,-45,-77,-81,-83,-86,-88,-90,0
sleep,16805,7,35.56787495,129.24558378,0.0,0.0,0.0,0.0,0.0015978955,-0.0011984216,-0.002929475,20.03716272618552,35.0,1582.3103846479376,415.8802533519164,259.561416982599,229.63696347800956,200.3953060505123,172.21849917895912,120.08520008865354,128.69097865047473,120.3680746834033,143.904592778972,10,-672,0,2,1,3,4,6,10,8,11,12,-35,-43,-44,-45,-77,-81,-83,-86,-88,-90,0
sleep,16810,7,35.56773255,129.24583962,0.0,0.0,0.0,0.0,0.0015978955,-0.0011984216,-0.00039947388,21.810240805906567,38.0,735.1318544072542,666.8136353493867,386.2885949813674,283.23517536940966,144.9267296830309,155.34547100476658,181.5063783923244,136.99948115115356,141.55015688909972,263.4406241508816,10,-672,0,2,1,3,4,6,10,8,11,12,-35,-43,-44,-45,-77,-81,-83,-86,-88,-90,0
sleep,16815,7,35.56773255,129.24583962,0.0,0.0,0.0,0.0,0.00079894776,-0.0010652636,-0.002929475,22.93577103329159,43.0,1971.4158403135807,1017.4055406120624,431.650569535718,248.81223280614392,179.180983294678,177.2213144793678,132.45938011560725,144.81768381732783,127.448130445498,127.36829999303936,10,-672,0,2,1,3,4,6,10,8,11,12,-35,-43,-44,-45,-77,-81,-83,-86,-88,-90,0
sleep,16820,7,35.56770718,129.24589824,0.0,0.0,0.0,0.0,0.0015978955,-0.0010652636,-0.00585895,31.29449271584583,128.0,5395.274369988082,2159.521792970745,2476.876854152218,1699.022528191631,1231.2821983731192,1141.00834505689,1182.6501672822071,564.4718976666314,761.3814280603149,1021.983403710614,10,-672,0,2,1,3,4,6,10,8,11,12,-35,-43,-44,-45,-77,-81,-83,-86,-88,-90,0
sleep,16825,7,35.56770718,129.24589824,0.0,0.0,0.0,0.0,0.0017310535,-0.0019973693,0.002796317,20.87736271494473,42.0,2091.2836755596227,594.2807740776508,319.8164794961263,219.9674314938958,169.23396412858995,131.40090348655056,106.12155546463754,142.1867408823311,104.72257768322248,122.05917118409498,10,-672,0,2,1,3,4,6,10,8,11,12,-35,-43,-44,-45,-77,-81,-83,-86,-88,-90,0
sleep,16830,7,35.56770718,129.24589824,0.0,0.0,0.0,0.0,0.0011984216,-0.0017310535,0.002530001,19.840121672615943,32.0,1265.3232384961584,798.4474439864545,316.8003947670218,203.30367208695623,133.0974862994316,120.4216060961697,128.50417430556035,113.26781147076524,115.7246751661038,134.8585228485537,10,-672,0,2,1,3,4,6,10,8,11,12,-35,-43,-44,-45,-77,-81,-83,-86,-88,-90,0
sleep,16835,7,35.56770718,129.24589824,0.0,0.0,0.0,0.0,0.0014647375,-0.0010652636,0.0002663159,20.562453238947363,32.0,1667.4190581621117,939.4538873064948,404.9237763521842,229.0289655005227,231.06882949776212,184.3283480565532,156.79493248883875,136.42497117915758,154.5237777397145,135.67294071070603,10,-672,0,2,1,3,4,6,10,8,11,12,-35,-43,-44,-45,-77,-81,-83,-86,-88,-90,0
sleep,16841,7,35.56770718,129.24589824,0.0,0.0,0.0,0.0,0.0013315795,-0.0011984216,-0.00039947388,24.160579152225846,48.0,1392.774682032902,494.3618611889693,321.3773154188914,114.04530984225175,174.75892600395605,124.90729185369332,124.12048539511106,126.96357841336882,114.4430928595348,154.12075709634377,10,-672,0,2,1,3,4,6,10,8,11,12,-35,-43,-44,-45,-77,-81,-83,-86,-88,-90,0
sleep,16846,7,35.56770718,129.24589824,0.0,0.0,0.0,0.0,0.0014647375,-0.0010652636,0.0002663159,20.611254334545844,34.0,755.1013832939859,816.0606312846628,309.2050677281824,256.9007342844286,171.09515334250207,146.43603079836592,122.97440266159424,120.22398680699698,116.35640433367428,129.7833705882497,10,-672,0,2,1,3,4,6,10,8,11,12,-35,-43,-44,-45,-77,-81,-83,-86,-88,-90,0
sleep,16851,7,35.56770718,129.24589824,0.0,0.0,0.0,0.0,0.0013315795,-0.00066578976,-0.0009321057,20.255892786851877,36.0,2782.398380097532,676.8148617304141,255.50543265580524,186.78266478559016,156.47252846082569,145.89623449259204,136.6606284238089,123.9328292804906,135.4303940750347,126.83761283863636,10,-672,0,2,1,3,4,6,10,8,11,12,-35,-43,-44,-45,-77,-81,-83,-86,-88,-90,0
sleep,16856,7,35.56770718,129.24589824,0.0,0.0,0.0,0.0,0.0013315795,-0.00079894776,-0.0017310535,18.67696297146193,28.0,579.7108473555968,685.5720303625516,366.6882187608011,187.6056162611382,185.7860258538509,150.6600703792299,116.9004102189158,136.64026134080987,115.51865889628354,119.3955278076868,10,-672,0,2,1,3,4,6,10,8,11,12,-35,-43,-44,-45,-77,-81,-83,-86,-88,-90,0
sleep,16861,7,35.56770718,129.24589824,0.0,0.0,0.0,0.0,0.0010652636,-0.0010652636,0.0015978955,20.863121522875776,33.0,902.5668726764636,678.2630015602585,229.0042057442987,265.20270635187666,141.84097530111222,169.3598476312406,135.93595361979106,95.55261381893878,131.9065077169028,139.21017194045706,10,-672,0,2,1,3,4,6,10,8,11,12,-35,-43,-44,-45,-77,-81,-83,-86,-88,-90,0
sleep,16866,7,35.56770718,129.24589824,0.0,0.0,0.0,0.0,0.0013315795,-0.0011984216,0.0005326318,19.480044873216016,28.0,455.2407170479921,740.7372645388691,506.0322832968047,273.16719956990414,183.80281490814212,139.47722161133038,137.44071949599297,107.14306292393196,115.49553167029656,152.89423526125927,10,-672,0,2,1,3,4,6,10,8,11,12,-35,-43,-44,-45,-77,-81,-83,-86,-88,-90,0
sleep,16871,7,35.56770718,129.24589824,0.0,0.0,0.0,0.0,0.0013315795,-0.0013315795,0.0041278964,28.184856627436886,65.0,1670.0391367025472,547.3606374064909,238.62502130758787,237.64930359856984,167.60566511538414,169.2121974477712,129.82597410584415,106.95498743478171,107.6128599466829,132.9790285940903,10,-672,0,2,1,3,4,6,10,8,11,12,-35,-43,-44,-45,-77,-81,-83,-86,-88,-90,0
sleep,16876,7,35.56770718,129.24589824,0.0,0.0,0.0,0.0,0.0014647375,-0.0009321057,-0.0005326318,19.357534839563392,33.0,2131.3425430514653,508.6016076915501,354.91178083407345,219.4176708221835,196.80082267314611,148.10588410960582,130.55286202123426,118.16031014222274,112.3759925800526,126.26801758828384,10,-672,0,2,1,3,4,6,10,8,11,12,-35,-43,-44,-45,-77,-81,-83,-86,-88,-90,0
sleep,16881,7,35.56770718,129.24589824,0.0,0.0,0.0,0.0,0.0014647375,-0.00039947388,0.006391582,19.63553314986104,32.0,1440.219749058393,503.2371111531942,287.7451359176995,254.77180241793712,183.81142192046912,148.32501430739924,131.0763819426948,120.92979055886693,116.57603026020128,144.18346896990138,10,-672,0,2,1,3,4,6,10,8,11,12,-35,-43,-44,-45,-77,-81,-83,-86,-88,-90,0
sleep,16886,7,35.56770718,129.24589824,0.0,0.0,0.0,0.0,0.0015978955,-0.0009321057,0.003195791,21.861636356731605,35.0,1783.3551221527484,613.839014355907,309.503046001633,269.6537984624066,207.5548782169541,174.5968033202465,144.12412042247772,146.52395284246242,126.2436388894174,167.89853120824026,10,-672,0,2,1,3,4,6,10,8,11,12,-35,-43,-44,-45,-77,-81,-83,-86,-88,-90,0
sleep,16891,7,35.56770718,129.24589824,0.0,0.0,0.0,0.0,0.0014647375,-0.00079894776,-0.0021305273,17.30161988821474,25.0,1480.8988452320427,771.8390265532076,382.2968110389823,278.75994633503416,116.06959943766611,146.17067983714378,154.6805033951616,126.69348172018314,124.9825627924145,150.94647712970823,10,-672,0,2,1,3,4,6,10,8,11,12,-35,-43,-44,-45,-77,-81,-83,-86,-88,-90,0
sleep,16896,7,35.56770718,129.24589824,0.0,0.0,0.0,0.0,0.0011984216,-0.0014647375,0.0037284228,19.69889176589114,35.0,1711.5403353941288,886.1143775567832,275.7318504668796,211.58798428290373,161.3740130751191,181.30936497671925,142.5811137370254,123.32479739074444,102.66091228977974,135.79930637173229,10,-672,0,2,1,3,4,6,10,8,11,12,-35,-43,-44,-45,-77,-81,-83,-86,-88,-90,0
sleep,16901,7,35.56770718,129.24589824,0.0,0.0,0.0,0.0,0.0011984216,-0.0013315795,-0.0030626329,18.36090179662198,30.0,1095.0247819873491,408.9455236915777,293.647451374324,225.56171428924463,165.09802439632196,152.83772738666266,125.87027204615868,139.13442461788708,142.12202749391997,143.91432632184708,10,-672,0,2,1,3,4,6,10,8,11,12,-35,-43,-44,-45,-77,-81,-83,-86,-88,-90,0
sleep,16906,7,35.56770718,129.24589824,0.0,0.0,0.0,0.0,0.0013315795,-0.0014647375,0.0073236874,27.412943034785396,84.0,1896.71077872924,1660.994051932843,859.476529969252,737.5243396465314,629.0514630343544,703.6437607594066,498.854077395487,715.8655030650755,694.7547138782917,674.3683961408599,10,-672,0,2,1,3,4,6,10,8,11,12,-35,-43,-44,-45,-77,-81,-83,-86,-88,-90,0
sleep,16911,7,35.56770718,129.24589824,0.0,0.0,0.0,0.0,0.0013315795,-0.0009321057,0.0047936863,20.993267943249943,37.0,1249.3471226815336,626.570513567184,409.0941188492986,176.02669819697618,181.28683618504147,118.78336850404008,147.81185142858925,108.26336588223796,133.42996895222234,143.01674108539814,12,-643,0,2,1,3,4,5,6,11,8,10,-34,-34,-37,-45,-76,-81,-81,-85,-85,-85,0
sleep,16916,7,35.56770718,129.24589824,0.0,0.0,0.0,0.0,0.0014647375,-0.0011984216,0.00066578976,21.79420497412464,37.0,685.2068250336026,409.05968629956135,299.4650641958752,159.12945880822443,165.48049657992604,140.8321127095463,147.1081466005794,120.70519778163062,127.28243250442245,145.8135382038638,12,-643,0,2,1,3,4,5,6,11,8,10,-34,-34,-37,-45,-76,-81,-81,-85,-85,-85,0
sleep,16921,7,35.56770718,129.24589824,0.0,0.0,0.0,0.0,0.0015978955,-0.0009321057,0.0051931604,20.326803561131573,46.0,854.2177865214176,569.1032440705601,295.1328511856088,207.4961874843264,170.13990392305826,110.84851783755448,113.14748217514892,103.55030214694084,114.64607336346263,155.634589459833,12,-650,0,2,1,3,4,6,8,10,7,11,-34,-34,-37,-45,-77,-81,-84,-84,-86,-88,0
sleep,16926,7,35.56770718,129.24589824,0.0,0.0,0.0,0.0,0.0017310535,-0.0017310535,-0.0017310535,19.75930331070949,34.0,1464.980852741859,825.8478852231422,499.375616179685,224.43326240695575,158.69872761563445,147.15945258072588,135.14220437993592,154.1015588366815,117.9913399950643,161.8779218025792,12,-650,0,2,1,3,4,6,8,10,7,11,-34,-34,-37,-45,-77,-81,-84,-84,-86,-88,0
sleep,16931,7,35.56770718,129.24589824,0.0,0.0,0.0,0.0,0.0014647375,-0.00079894776,-0.00039947388,20.60613535882435,43.0,1439.5896900688858,613.7405560824211,318.9616895662201,211.6742816146222,227.8713025185509,209.2763175842968,166.4072110817488,115.32441472051022,130.37605517110495,127.28004112274228,12,-650,0,2,1,3,4,6,8,10,7,11,-34,-34,-37,-45,-77,-81,-84,-84,-86,-88,0
sleep,16936,7,35.56770718,129.24589824,0.0,0.0,0.0,0.0,0.00066578976,-0.0013315795,0.006391582,21.01975560811423,39.0,602.0064704339524,516.4575125913594,255.4914852248661,225.65104328180044,186.84765326541785,171.26902985513374,150.07766078220678,108.2682977593074,125.07943634010692,158.76852626083505,12,-650,0,2,1,3,4,6,8,10,7,11,-34,-34,-37,-45,-77,-81,-84,-84,-86,-88,0
sleep,16941,7,35.56770718,129.24589824,0.0,0.0,0.0,0.0,0.0018642114,-0.0014647375,-0.0014647375,21.209327207095665,37.0,1167.9437401018918,338.69500649768486,316.6904199641403,301.03207022086355,220.33272236613996,261.9461080215994,210.33090191184323,169.13284725017266,182.3712443608302,238.95365692573225,12,-650,0,2,1,3,4,6,8,10,7,11,-34,-34,-37,-45,-77,-81,-84,-84,-86,-88,0
sleep,16946,7,35.56770718,129.24589824,0.0,0.0,0.0,0.0,0.0018642114,-0.0011984216,-0.0073236874,19.398172152775896,32.0,1905.2569793116663,547.0704235646047,301.0330360665743,253.95364844027637,169.82465045673197,165.78774319679843,160.96799911887686,165.07133998561406,137.43433740915842,204.0065389444188,12,-650,0,2,1,3,4,6,8,10,7,11,-34,-34,-37,-45,-77,-81,-84,-84,-86,-88,0
sleep,16951,7,35.56770718,129.24589824,0.0,0.0,0.0,0.0,0.0013315795,-0.0005326318,0.0042610546,19.90876008273885,34.0,342.21930174916923,758.7596632809322,300.8129677734627,236.03643537935568,166.57809942562514,167.7008759009572,138.2604951648829,131.24567450146608,142.57097046003912,144.41119824384023,12,-650,0,2,1,3,4,6,8,10,7,11,-34,-34,-37,-45,-77,-81,-84,-84,-86,-88,0
sleep,16956,7,35.56770718,129.24589824,0.0,0.0,0.0,0.0,0.0010652636,-0.0010652636,0.005060002,19.160057336503375,29.0,1809.6196259869853,663.5222655180212,233.2323371123381,174.36207363072762,188.0590022642228,143.7330587748551,148.47799536780852,150.6844942861001,118.90984302234772,133.48600601926665,12,-650,0,2,1,3,4,6,8,10,7,11,-34,-34,-37,-45,-77,-81,-84,-84,-86,-88,0
sleep,16961,7,35.56770718,129.24589824,0.0,0.0,0.0,0.0,0.0018642114,-0.0010652636,-0.002530001,18.7848268405304,28.0,998.0265548168468,661.383646106813,267.1179456047787,169.89816241651798,182.8899841865608,169.89195700758654,135.3251311924474,133.39387660361143,117.16814264014684,125.11534509501868,12,-650,0,2,1,3,4,6,8,10,7,11,-34,-34,-37,-45,-77,-81,-84,-84,-86,-88,0
sleep,16967,7,35.56770718,129.24589824,0.0,0.0,0.0,0.0,0.0013315795,-0.00066578976,-0.003462107,20.62039238750252,36.0,3392.703831606008,532.2800737808936,249.2389868688559,135.888901275077,238.3607559452021,145.76183942043642,161.59718159745927,147.35636533443795,114.22975617864464,175.76311622937922,12,-650,0,2,1,3,4,6,8,10,7,11,-34,-34,-37,-45,-77,-81,-84,-84,-86,-88,0
sleep,16972,7,35.56770718,129.24589824,0.0,0.0,0.0,0.0,0.0018642114,-0.0017310535,-0.0037284228,25.957277475739467,71.0,3103.0550993094976,708.6513912834973,573.1045057656092,480.190620612558,309.2254147922748,170.68365173644364,240.29933427604303,225.58752337450304,235.297951004608,322.7811005824513,12,-650,0,2,1,3,4,6,8,10,7,11,-34,-34,-37,-45,-77,-81,-84,-84,-86,-88,0
sleep,16977,7,35.56770718,129.24589824,0.0,0.0,0.0,0.0,0.0018642114,-0.00039947388,0.0002663159,22.500624542923788,41.0,849.7059665460566,765.0592224058656,322.2554506503433,250.2747945461569,143.54209249304998,162.9516675272798,137.14327807145398,134.7664749644792,119.58741059108355,128.90450548949084,12,-650,0,2,1,3,4,6,8,10,7,11,-34,-34,-37,-45,-77,-81,-84,-84,-86,-88,0
sleep,16982,7,35.56770718,129.24589824,0.0,0.0,0.0,0.0,0.0013315795,-0.0010652636,-0.002663159,18.515825012942837,25.0,1724.4536086834137,448.6314231728876,256.5291383407656,271.5373838380671,192.4163305123459,168.72813297624128,182.92908348111504,103.41102396651767,112.13004535586056,136.70708853022273,12,-650,0,2,1,3,4,6,8,10,7,11,-34,-34,-37,-45,-77,-81,-84,-84,-86,-88,0
sleep,16987,7,35.56770718,129.24589824,0.0,0.0,0.0,0.0,0.0013315795,-0.0009321057,-0.0073236874,22.28755576805794,37.0,1603.6212711628157,720.0439660877224,239.734948560576,220.1889383812711,136.48944262270274,140.90959904991112,113.26629540165789,102.44643712103507,122.73142596279584,114.83596443811112,12,-650,0,2,1,3,4,6,8,10,7,11,-34,-34,-37,-45,-77,-81,-84,-84,-86,-88,0
sleep,16992,7,35.56770718,129.24589824,0.0,0.0,0.0,0.0,0.0014647375,-0.0010652636,0.00079894776,23.75875811295261,43.0,1256.0095224635122,400.8842247137599,500.50171526363295,260.1783938437353,157.80082801846558,146.1121323719086,144.75752455182675,137.34514243685888,129.6033688877699,129.4068904498696,12,-650,0,2,1,3,4,6,8,10,7,11,-34,-34,-37,-45,-77,-81,-84,-84,-86,-88,0
sleep,16997,7,35.56770718,129.24589824,0.0,0.0,0.0,0.0,0.0022636852,-0.0010652636,-0.0021305273,19.746476249284367,35.0,1262.1977273838768,615.3105703721776,300.9542569496688,232.71966428828287,190.47069709257963,183.6129602613757,293.8286601992129,147.92341504372573,118.45950130011964,151.09621134105208,12,-650,0,2,1,3,4,6,8,10,7,11,-34,-34,-37,-45,-77,-81,-84,-84,-86,-88,0
sleep,17002,7,35.56785188,129.24564244,0.0,0.0,0.0,0.0,0.0015978955,-0.0010652636,-0.0015978955,21.743638990495576,43.0,2278.91428148166,706.6791081418987,250.2433443064332,202.22257711886837,152.79842073552786,127.6870219352688,153.33093772759466,138.77223302423718,120.35948398457263,144.79743458959598,12,-650,0,2,1,3,4,6,8,10,7,11,-34,-34,-37,-45,-77,-81,-84,-84,-86,-88,0
sleep,17007,7,35.56785188,129.24564244,0.0,0.0,0.0,0.0,0.0015978955,-0.0010652636,-0.0061252657,21.512879183647836,34.0,2375.402567383139,570.120082447558,389.9919571134681,257.56675871173405,159.90625364347687,122.44757114455892,119.28275121455016,128.44919896141798,130.06513573589228,129.19108319314725,12,-650,0,2,1,3,4,6,8,10,7,11,-34,-34,-37,-45,-77,-81,-84,-84,-86,-88,0
sleep,17012,7,35.56785188,129.24564244,0.0,0.0,0.0,0.0,0.00079894776,-0.0011984216,0.006657898,18.690024074695085,32.0,996.5156127440156,530.6668733510742,370.03219277892606,219.86802494549977,161.81399292421256,137.64127684897082,145.19354875284904,121.91066737562292,108.2525704836565,128.90659911185637,12,-650,0,2,1,3,4,6,8,10,7,11,-34,-34,-37,-45,-77,-81,-84,-84,-86,-88,0
sleep,17017,7,35.56785188,129.24564244,0.0,0.0,0.0,0.0,0.0014647375,-0.0010652636,0.0041278964,19.44515718869838,32.0,521.85428892897,753.3299195366374,357.2571493693826,325.4807142949287,188.28411269650175,143.95193654538042,127.2154224983842,109.35569905847711,104.80350229357155,137.46962510506535,12,-650,0,2,1,3,4,6,8,10,7,11,-34,-34,-37,-45,-77,-81,-84,-84,-86,-88,0
sleep,17022,7,35.56785188,129.24564244,0.0,0.0,0.0,0.0,0.0014647375,-0.0013315795,0.0030626329,22.687852794591823,54.0,1665.2291161530848,827.501901457193,295.5607378034561,193.6105660725434,170.46504871958933,134.24862618725956,167.91949284235284,237.87198428526665,184.41450063054336,664.5871083342699,12,-650,0,2,1,3,4,6,8,10,7,11,-34,-34,-37,-45,-77,-81,-84,-84,-86,-88,0
sleep,17027,7,35.56785188,129.24564244,0.0,0.0,0.0,0.0,0.0018642114,-0.0013315795,-0.003328949,21.530173477396826,42.0,1836.9896141748663,890.1742692348522,424.9928820913789,503.4691289986317,218.0740614246804,148.3651657769894,144.98900651735138,106.47174808113964,141.83258613642167,142.61420997511237,12,-650,0,2,1,3,4,6,8,10,7,11,-34,-34,-37,-45,-77,-81,-84,-84,-86,-88,0
sleep,17032,7,35.56785188,129.24564244,0.0,0.0,0.0,0.0,0.0021305273,-0.00079894776,-0.0047936863,20.31539201838577,32.0,2312.0292031584704,567.4323156449085,278.6959815604744,276.9731773169933,164.56988745106548,131.41603420329258,126.80234244142147,132.02067547334866,134.47707769743786,123.31266942715916,12,-656,0,2,1,3,4,5,6,8,13,7,-34,-34,-45,-46,-76,-80,-83,-84,-87,-87,0
sleep,17037,7,35.56785188,129.24564244,0.0,0.0,0.0,0.0,0.0013315795,-0.0013315795,0.0017310535,19.36146693670103,36.0,2314.629018578462,633.0522765484004,357.39454837226253,434.9578324435096,180.0419138760874,152.99871714281167,139.99742072438255,139.61294942672168,131.36402272571976,136.00128940081385,12,-656,0,2,1,3,4,5,6,8,13,7,-34,-34,-45,-46,-76,-80,-83,-84,-87,-87,0
sleep,17042,7,35.56785188,129.24564244,0.0,0.0,0.0,0.0,0.0015978955,-0.0009321057,-0.00066578976,21.93977429238192,41.0,1992.353261776258,551.0721174150079,339.05909049398934,655.2350425050456,207.30412328136148,113.5814209287211,165.98037098997978,117.43158281559334,124.6914304648746,148.66414690118745,10,-657,2,0,1,3,4,6,10,8,13,11,-34,-35,-45,-46,-75,-82,-82,-84,-86,-88,0
sleep,17047,7,35.56785188,129.24564244,0.0,0.0,0.0,0.0,0.0015978955,-0.0011984216,0.0015978955,20.73272275774153,37.0,711.855939115031,588.2597953949535,301.5317905448865,335.4318033489998,262.6017276639895,129.4184101040763,143.46226759492393,112.65699007365993,132.07868183314426,112.06075326785368,10,-657,2,0,1,3,4,6,10,8,13,11,-34,-35,-45,-46,-75,-82,-82,-84,-86,-88,0
sleep,17052,7,35.56785188,129.24564244,0.0,0.0,0.0,0.0,0.0011984216,-0.0013315795,-0.0005326318,23.20401318405601,48.0,585.1290198847976,642.7729015806821,363.4177935964802,248.532912562309,113.94924832101138,173.90007817339674,139.8784344348759,137.83211477505137,122.10689618762048,146.8937404772437,10,-657,2,0,1,3,4,6,10,8,13,11,-34,-35,-45,-46,-75,-82,-82,-84,-86,-88,0
sleep,17057,7,35.56785188,129.24564244,0.0,0.0,0.0,0.0,0.0017310535,-0.0013315795,0.0022636852,22.18894635219593,36.0,541.8200449951835,686.2038422319667,398.8518307885325,268.1641928795465,159.80288833774935,141.8069463476393,124.6692040294574,129.26586877161483,135.63509543383515,136.21640109096293,10,-657,2,0,1,3,4,6,10,8,13,11,-34,-35,-45,-46,-75,-82,-82,-84,-86,-88,0
sleep,17062,7,35.56785188,129.24564244,0.0,0.0,0.0,0.0,0.0015978955,-0.0013315795,-0.0013315795,22.76439363609097,43.0,1252.1348023192568,409.3172464262117,373.6929049260428,216.54554929923168,181.9098774316261,165.74547486479776,164.18878321320375,106.99667465065158,104.9601115170956,136.0794832234936,10,-657,2,0,1,3,4,6,10,8,13,11,-34,-35,-45,-46,-75,-82,-82,-84,-86,-88,0
sleep,17067,7,35.56785188,129.24564244,0.0,0.0,0.0,0.0,0.0015978955,-0.0013315795,-0.00079894776,19.27464314342562,35.0,783.094382681206,428.39024810206354,375.7014731439919,230.6694774448781,193.87602049683008,124.97109559564348,124.15780551228586,119.63870603890626,120.0138769163138,106.27530588481424,10,-657,2,0,1,3,4,6,10,8,13,11,-34,-35,-45,-46,-75,-82,-82,-84,-86,-88,0
sleep,17072,7,35.56785188,129.24564244,0.0,0.0,0.0,0.0,0.0013315795,-0.0011984216,-0.0010652636,18.61363030636904,29.0,1033.0942434498174,714.0857219674814,368.1696462283565,212.20906713382965,178.11958844138772,157.21251631314774,137.73244393566992,119.59453698323692,133.70756581644275,145.4235754598552,10,-657,2,0,1,3,4,6,10,8,13,11,-34,-35,-45,-46,-75,-82,-82,-84,-86,-88,0
sleep,17077,7,35.56785188,129.24564244,0.0,0.0,0.0,0.0,0.0017310535,-0.0005326318,-0.0071905297,21.689111260668746,34.0,1550.3007941181809,692.8367808701278,499.3779275055021,319.8119322593189,165.14760437476085,179.05546198535436,136.3660126248707,126.78861348157058,126.6221996710164,144.72959817663457,10,-657,2,0,1,3,4,6,10,8,13,11,-34,-35,-45,-46,-75,-82,-82,-84,-86,-88,0
sleep,17082,7,35.56785188,129.24564244,0.0,0.0,0.0,0.0,0.0011984216,-0.0010652636,0.006924214,18.542212951304432,29.0,2514.92092066999,404.6419599411972,291.10454388464166,204.1341497543419,146.73751830951232,146.00862117296796,175.5486527508872,134.7942070994413,134.01388117687458,136.68066630274296,10,-657,2,0,1,3,4,6,10,8,13,11,-34,-35,-45,-46,-75,-82,-82,-84,-86,-88,0
sleep,17087,7,35.56785188,129.24564244,0.0,0.0,0.0,0.0,0.0014647375,-0.0009321057,-0.0005326318,19.26190806687146,32.0,1513.9783426158892,809.8875041241445,327.38577248240824,185.3788132785246,149.64297458020744,165.81063845037986,146.86804352512743,143.3259940021573,99.94051614509095,129.67554263503706,10,-657,2,0,1,3,4,6,10,8,13,11,-34,-35,-45,-46,-75,-82,-82,-84,-86,-88,0
sleep,17093,7,35.56785188,129.24564244,0.0,0.0,0.0,0.0,0.0011984216,-0.0011984216,0.002929475,20.174851835434872,36.0,2206.039302824765,539.8358135678504,328.9499772127593,249.46424720536515,162.66253988324536,158.22786420293104,145.24732526621952,131.5438948945562,140.41674160032258,183.056345702594,10,-657,2,0,1,3,4,6,10,8,13,11,-34,-35,-45,-46,-75,-82,-82,-84,-86,-88,0
sleep,17098,7,35.56785188,129.24564244,0.0,0.0,0.0,0.0,0.0017310535,-0.0017310535,-0.003328949,18.62330741167274,26.0,1168.0372056190618,282.772581346375,287.11046089351976,165.3483887268424,181.34229188515675,147.15236583077112,132.88568252447678,134.71328980319436,118.43668304101968,125.61959911877295,10,-657,2,0,1,3,4,6,10,8,13,11,-34,-35,-45,-46,-75,-82,-82,-84,-86,-88,0
sleep,17103,7,35.56785188,129.24564244,0.0,0.0,0.0,0.0,0.0015978955,-0.0011984216,0.0018642114,18.612045938227755,32.0,1090.191152590112,914.835293697874,445.3581312057826,180.5445949019079,219.1106910180376,126.28723275298024,133.356565436903,125.9813246078692,124.10866957073488,126.56243633242453,10,-657,2,0,1,3,4,6,10,8,13,11,-34,-35,-45,-46,-75,-82,-82,-84,-86,-88,0
sleep,17108,7,35.56785188,129.24564244,0.0,-0.47105917,-0.7835025,9.771336,0.0014647375,-0.0009321057,0.00066578976,19.445818047662737,30.0,2005.5030991870208,499.02901106766114,243.0423660942571,200.3821825483034,186.9946918841709,173.6748687012498,126.78665000958804,136.8399442195527,110.09281291612068,139.358961368309,10,-657,2,0,1,3,4,6,10,8,13,11,-34,-35,-45,-46,-75,-82,-82,-84,-86,-88,0
sleep,17113,7,35.56785188,129.24564244,0.0,-0.47105917,-0.7835025,9.771336,0.0017310535,-0.0009321057,-0.0013315795,21.046806448041465,42.0,1272.96780504778,748.6256669834117,244.7982179980648,280.1350767039148,190.43807177197425,173.92942466303504,145.91497123613706,112.56599934676106,126.41808675683268,122.65187702581706,10,-657,2,0,1,3,4,6,10,8,13,11,-34,-35,-45,-46,-75,-82,-82,-84,-86,-88,0
sleep,17118,7,35.56785188,129.24564244,0.0,-0.47105917,-0.7835025,9.771336,0.0014647375,-0.0009321057,0.00039947388,20.24571329935614,38.0,963.5146233367744,501.6453487138777,179.7351968662132,206.42502949575413,158.53833094189272,148.35664044791093,124.44236778142988,127.82832081953924,120.46952828906772,138.71399763189928,10,-657,2,0,1,3,4,6,10,8,13,11,-34,-35,-45,-46,-75,-82,-82,-84,-86,-88,0
sleep,17123,7,35.56785188,129.24564244,0.0,-0.47105917,-0.7835025,9.771336,0.0015978955,-0.0011984216,0.0054594763,23.35606756439733,49.0,795.321699199859,492.5772453132535,334.9918162738478,274.9370902400831,133.5026198114799,127.25745751950654,180.63732729193936,132.54453536066924,144.59271565581727,208.45368263611252,10,-657,2,0,1,3,4,6,10,8,13,11,-34,-35,-45,-46,-75,-82,-82,-84,-86,-88,0
sleep,17128,7,35.56785188,129.24564244,0.0,-0.47105917,-0.7835025,9.771336,0.0015978955,-0.0015978955,-0.002530001,21.38695571018335,41.0,1416.520425140532,875.1764731361551,232.88635257144563,160.30286233542282,249.5429565466986,211.59986437598693,151.05272430412447,190.0181197414675,181.6713649545728,320.14440550317386,10,-657,2,0,1,3,4,6,10,8,13,11,-34,-35,-45,-46,-75,-82,-82,-84,-86,-88,0
sleep,17133,7,35.56785188,129.24564244,0.0,-0.47105917,-0.7835025,9.771336,0.0014647375,-0.0011984216,-0.0030626329,20.48263796722984,50.0,1600.6754688719464,458.2117466026588,432.4814692349443,276.83095085104327,231.74893936136115,158.20989342676506,212.93792738054432,213.07064971279527,238.09216126535875,348.18482430756137,10,-657,2,0,1,3,4,6,10,8,13,11,-34,-35,-45,-46,-75,-82,-82,-84,-86,-88,0
sleep,17138,7,35.56785188,129.24564244,0.0,-0.47105917,-0.7835025,9.771336,0.0017310535,-0.0009321057,0.0019973693,22.75177622598676,54.0,4106.135134987222,1357.161550870735,466.7267662901231,339.55007335021384,139.58722388176838,183.99798703995924,157.31136009535393,148.35504897208648,175.1561148572226,217.22843114765212,10,-657,2,0,1,3,4,6,10,8,13,11,-34,-35,-45,-46,-75,-82,-82,-84,-86,-88,0
sleep,17143,7,35.56785188,129.24564244,0.0,-0.47105917,-0.7835025,9.771336,0.0017310535,-0.0017310535,-0.005725792,21.516196556133988,41.0,2389.943617940272,1154.4910185373296,401.4809682805741,321.80101678642046,181.11766685020788,196.98898622828293,162.7412328508531,140.81125278033144,126.28386011017454,126.94697369187398,10,-657,2,0,1,3,4,6,10,8,13,11,-34,-35,-45,-46,-75,-82,-82,-84,-86,-88,0
sleep,17148,7,35.56785188,129.24564244,0.0,-0.47105917,-0.7835025,9.771336,0.0013315795,-0.0010652636,0.0010652636,19.182685255507742,30.0,2553.378621718468,397.5341736747304,270.44054269096574,340.9076965517333,178.4360611346351,146.6531922533216,108.6929376340095,117.07922910117944,116.9361209098224,129.11720229085302,10,-657,2,0,1,3,4,6,10,8,13,11,-34,-35,-45,-46,-75,-82,-82,-84,-86,-88,0
sleep,17153,7,35.56785188,129.24564244,0.0,-0.47105917,-0.7835025,9.771336,0.0018642114,-0.0011984216,0.006657898,23.08623360006161,50.0,1356.158198159898,674.2146015902522,392.24844369808847,258.5067480514006,166.8314118906435,164.3875571088324,121.5423993405604,133.07702301682895,115.93879459360954,121.74536594377815,11,-643,2,0,1,3,4,5,6,10,8,11,-34,-35,-37,-43,-76,-79,-83,-83,-86,-87,0
sleep,17158,7,35.56785188,129.24564244,0.0,-0.47105917,-0.7835025,9.771336,0.0019973693,-0.0013315795,-0.0046605286,23.117851883333262,39.0,1288.104522326329,708.9361064193074,267.7755160748018,176.75272145701743,218.11135131047777,191.19667125381105,100.12511053333532,111.50619292572917,126.1021029470049,139.76541558358892,11,-643,2,0,1,3,4,5,6,10,8,11,-34,-35,-37,-43,-76,-79,-83,-83,-86,-87,0
sleep,17163,7,35.56785188,129.24564244,0.0,-0.47105917,-0.7835025,9.771336,0.0019973693,-0.0014647375,-0.0046605286,25.310842032007766,54.0,2007.4617161433423,360.3661061645345,377.8915021862788,265.8408653813144,153.71443743092178,158.52815055153516,184.3900620367678,206.63748163484428,146.66808635658782,225.1093141908185,11,-646,2,0,1,3,4,5,6,10,8,11,-34,-35,-39,-43,-76,-79,-83,-83,-85,-89,0
sleep,17168,7,35.56785188,129.24564244,0.0,-0.47105917,-0.7835025,9.771336,0.0019973693,-0.0013315795,-0.0011984216,20.649987655451007,39.0,1876.5015933522889,929.433782104522,257.51345367530547,196.49328296208577,148.05195650637364,163.56473235609957,119.4040599363678,155.88729281807758,128.33132664568112,151.6573295760146,11,-646,2,0,1,3,4,5,6,10,8,11,-34,-35,-39,-43,-76,-79,-83,-83,-85,-89,0
sleep,17173,7,35.56785188,129.24564244,0.0,-0.47105917,-0.7835025,9.771336,0.0018642114,-0.0014647375,0.0021305273,19.644721951932404,41.0,2103.805312878528,878.832376056895,316.79439222211727,282.65349020498314,201.0849898201728,137.60240713181514,169.3763289903852,142.72713150505086,126.7809642658761,155.75796955902484,11,-646,2,0,1,3,4,5,6,10,8,11,-34,-35,-39,-43,-76,-79,-83,-83,-85,-89,0
sleep,17178,7,35.56785188,129.24564244,0.0,-0.47105917,-0.7835025,9.771336,0.0017310535,-0.0013315795,0.0,20.253755929769238,37.0,641.5023968750445,204.3254059477213,277.83876337590016,310.99476345567155,181.32108346638225,216.9056552585536,367.9150102772834,146.39965760474698,108.91366650997298,158.93375436847762,11,-646,2,0,1,3,4,5,6,10,8,11,-34,-35,-39,-43,-76,-79,-83,-83,-85,-89,0
sleep,17183,7,35.56785188,129.24564244,0.0,-0.47105917,-0.7835025,9.771336,0.0009321057,-0.0011984216,-0.002530001,19.421852799098588,30.0,1252.633571531302,237.0222262082682,362.5263303206301,226.7460323168056,155.09896959020645,173.78914650594086,139.89434919099298,121.35113107360756,122.2373100388598,126.34322133136942,11,-646,2,0,1,3,4,5,6,10,8,11,-34,-35,-39,-43,-76,-79,-83,-83,-85,-89,0
sleep,17188,7,35.56785188,129.24564244,0.0,-0.47105917,-0.7835025,9.771336,0.0014647375,-0.0013315795,-0.0023968432,23.76296838361414,48.0,1715.1558997292932,684.2704330825381,333.75877271139746,477.0590984803292,173.87047900422797,156.8166100735012,199.96843891145903,220.45039358293155,164.93598361722675,350.1713800363563,11,-646,2,0,1,3,4,5,6,10,8,11,-34,-35,-39,-43,-76,-79,-83,-83,-85,-89,0
sleep,17193,7,35.56785188,129.24564244,0.0,-0.47105917,-0.7835025,9.771336,0.0018642114,-0.0013315795,0.0023968432,20.092008837026736,37.0,1916.019125369476,746.7734811697208,425.0476198383112,269.6586053753615,204.29977827586848,199.9970034927131,151.26099225123232,120.1944741916464,116.5834634190575,137.52481685080087,11,-646,2,0,1,3,4,5,6,10,8,11,-34,-35,-39,-43,-76,-79,-83,-83,-85,-89,0
sleep,17198,7,35.56785188,129.24564244,0.0,-0.47105917,-0.7835025,9.771336,0.0018642114,-0.0013315795,0.003195791,19.449038295821577,30.0,896.958064725342,499.39728840150383,312.0656563421857,310.9088720283835,235.16479961569812,168.48714432099325,142.90931746762817,127.26838977696782,123.75438563304438,132.815811128338,11,-646,2,0,1,3,4,5,6,10,8,11,-34,-35,-39,-43,-76,-79,-83,-83,-85,-89,0
sleep,17203,7,35.56785188,129.24564244,0.0,-0.47105917,-0.7835025,9.771336,0.0011984216,-0.0011984216,0.0030626329,21.08869178223945,48.0,1188.4376232742966,653.4266643590665,315.7530448506077,246.4935139845905,201.11069503004535,164.37443771977044,157.6859194713314,138.06070402670946,115.74026687416912,172.26776085882324,11,-646,2,0,1,3,4,5,6,10,8,11,-34,-35,-39,-43,-76,-79,-83,-83,-85,-89,0
sleep,17208,7,35.56785188,129.24564244,0.0,-0.47105917,-0.7835025,9.771336,0.0019973693,-0.0014647375,0.0030626329,19.10910726286328,32.0,1122.6862092722995,474.8535749824224,280.7765181205482,222.8442038723541,141.58231774022173,112.5372490524344,117.70891038423018,126.11951194716056,123.96152213140108,115.79603245235155,11,-646,2,0,1,3,4,5,6,10,8,11,-34,-35,-39,-43,-76,-79,-83,-83,-85,-89,0
sleep,17213,7,35.56785188,129.24564244,0.0,-0.47105917,-0.7835025,9.771336,0.0019973693,-0.0011984216,0.00039947388,20.623878495508396,36.0,1573.9503349572155,505.9944276100465,359.55731897880634,298.4940363489361,257.68820985058727,164.20363617015047,126.9091076436598,120.91779327473056,141.84345912951292,150.9600749520505,11,-646,2,0,1,3,4,5,6,10,8,11,-34,-35,-39,-43,-76,-79,-83,-83,-85,-89,0
sleep,17218,7,35.56785188,129.24564244,0.0,-0.47105917,-0.7835025,9.771336,0.0010652636,-0.0009321057,0.0002663159,19.352277121574147,32.0,1037.0055651498928,424.6335763793656,326.75115609172923,126.5205213037911,156.60340572212291,135.61675558962702,140.865771048874,130.4398217540231,127.41109464704152,137.73308564412903,11,-646,2,0,1,3,4,5,6,10,8,11,-34,-35,-39,-43,-76,-79,-83,-83,-85,-89,0
sleep,17224,7,35.56785188,129.24564244,0.0,-0.47105917,-0.7835025,9.771336,0.0018642114,-0.0010652636,0.00079894776,19.71561346831836,32.0,1877.450056300493,628.0523796506188,241.09045346366216,209.37569816796247,196.3083957249231,163.43816846526477,127.81101398462084,117.55769266995276,117.6192727619487,129.17550462349,11,-646,2,0,1,3,4,5,6,10,8,11,-34,-35,-39,-43,-76,-79,-83,-83,-85,-89,0
sleep,17229,7,35.56785188,129.24564244,0.0,-0.47105917,-0.7835025,9.771336,0.0019973693,-0.0017310535,-0.0018642114,21.834509738322343,36.0,1992.634630544327,432.55167626661705,253.8241968238625,199.2626821334004,225.00347290193272,160.47220594184842,118.26527473071212,132.72190241406284,86.80338448951,127.983158478024,11,-646,2,0,1,3,4,5,6,10,8,11,-34,-35,-39,-43,-76,-79,-83,-83,-85,-89,0
sleep,17234,7,35.56785188,129.24564244,0.0,-0.47105917,-0.7835025,9.771336,0.0022636852,-0.0009321057,-0.0023968432,20.12925450633197,35.0,1637.6551282105472,334.818858222217,222.00443401126304,211.3133950453256,170.20890228246057,114.43230978768617,122.77287803627496,127.29710621424138,131.34838603120394,122.54557786297596,11,-646,2,0,1,3,4,5,6,10,8,11,-34,-35,-39,-43,-76,-79,-83,-83,-85,-89,0
sleep,17239,7,35.56785188,129.24564244,0.0,-0.47105917,-0.7835025,9.771336,0.0013315795,-0.00079894776,-0.0019973693,19.72605451811785,34.0,1600.3556998888716,562.7416541815144,238.68581957353737,205.67227719276417,173.62208181366168,160.38269282180997,116.8822424784509,130.6294544741753,118.7651505669534,126.3905230732187,11,-646,2,0,1,3,4,5,6,10,8,11,-34,-35,-39,-43,-76,-79,-83,-83,-85,-89,0
sleep,17244,7,35.56785188,129.24564244,0.0,-0.47105917,-0.7835025,9.771336,0.0014647375,-0.00066578976,-0.0037284228,18.74097249650673,32.0,1482.7889575215863,329.8347287007109,386.7230115822433,192.1332437655752,116.52291265081864,141.2912579176943,154.4531928179715,118.54964251181732,135.7158803878864,136.32034490189267,11,-646,2,0,1,3,4,5,6,10,8,11,-34,-35,-39,-43,-76,-79,-83,-83,-85,-89,0
sleep,17249,7,35.56785188,129.24564244,0.0,-0.47105917,-0.7835025,9.771336,0.0015978955,-0.0010652636,-0.0015978955,22.58086765901148,48.0,2763.228982975225,1305.139466513137,445.2426211521647,331.8611604179935,220.38040215893903,217.25734278527773,132.0334629332784,147.82557943733678,134.0572506432243,131.63359952582098,11,-646,2,0,1,3,4,5,6,10,8,11,-34,-35,-39,-43,-76,-79,-83,-83,-85,-89,0
sleep,17254,7,35.56785188,129.24564244,0.0,-0.47105917,-0.7835025,9.771336,0.0017310535,-0.00079894776,0.0019973693,25.09872037532152,48.0,1625.8422607285816,963.3842572644568,392.1783805749738,304.0699748541551,204.8136590901377,201.4522506676689,155.13750404699357,154.31107170047355,197.5763676171226,287.6414090843227,11,-646,2,0,1,3,4,5,6,10,8,11,-34,-35,-39,-43,-76,-79,-83,-83,-85,-89,0
sleep,17259,7,35.56785188,129.24564244,0.0,-0.47105917,-0.7835025,9.771336,0.0015978955,-0.0010652636,0.0021305273,21.684789039146533,37.0,476.5284411536604,669.8549624444979,336.5596608501113,252.21433635890727,139.05618544632603,136.73401458698805,139.37009423264809,129.19566183312958,126.87379992241124,125.77349537352778,11,-646,2,0,1,3,4,5,6,10,8,11,-34,-35,-39,-43,-76,-79,-83,-83,-85,-89,0
sleep,17264,7,35.56785188,129.24564244,0.0,-0.47105917,-0.7835025,9.771336,0.0022636852,-0.0010652636,-0.0009321057,19.331253040550603,33.0,622.0280882775687,808.3194690524995,269.6937031106818,238.59991709916972,142.9549525159997,154.583536983184,154.2944202724502,119.73324412333533,127.28966990292597,122.45861330344812,11,-646,2,0,1,3,4,5,6,10,8,11,-34,-35,-39,-43,-76,-79,-83,-83,-85,-89,0
sleep,17269,7,35.56785188,129.24564244,0.0,-0.47105917,-0.7835025,9.771336,0.0019973693,-0.0017310535,-0.0019973693,18.58105986680085,29.0,1452.9172367703225,540.3429879061632,344.01406708585057,250.5808219009239,171.32669979011882,138.79687095514018,110.03525661563948,104.6735475411243,132.78605581514807,141.71657049672024,11,-646,2,0,1,3,4,5,6,10,8,11,-34,-35,-39,-43,-76,-79,-83,-83,-85,-89,0
sleep,17274,7,35.56785188,129.24564244,0.0,-0.47105917,-0.7835025,9.771336,0.0015978955,-0.0011984216,-0.0017310535,18.64493202276592,30.0,1100.432468742782,864.022371602646,368.2390771908469,206.7101496580549,169.94968895756517,139.6143517885454,138.14233905192668,107.83257470885034,115.62488301163783,134.03777941726946,9,-568,2,0,1,3,4,6,10,8,14,11,-34,-35,-37,-44,-77,-83,-83,-84,-91,-89,0
sleep,17279,7,35.56785188,129.24564244,0.0,-0.47105917,-0.7835025,9.771336,0.0015978955,-0.0014647375,0.003462107,25.46579496640527,64.0,5646.778802562832,1389.076007089209,892.7996570914114,450.9218154281237,405.9561124068429,241.7334620588656,399.53379943771336,264.0858642501509,338.81623688339533,567.0517032007575,9,-568,2,0,1,3,4,6,10,8,14,11,-34,-35,-37,-44,-77,-83,-83,-84,-91,-89,0
sleep,17284,7,35.56785188,129.24564244,0.0,-0.47105917,-0.7835025,9.771336,0.0015978955,-0.0011984216,-0.00066578976,19.10547583878448,31.0,1402.701004694192,489.5281397130686,402.6710749832552,172.76344392073193,207.56555533783288,159.0310890642902,127.32108187493768,128.92739617047567,122.60719646021676,127.33011062993856,11,-649,2,0,1,3,4,5,6,10,8,11,-34,-35,-40,-43,-76,-81,-82,-84,-86,-88,0
sleep,17289,7,35.56785188,129.24564244,0.0,-0.47105917,-0.7835025,9.771336,0.0013315795,-0.0017310535,0.0021305273,21.782468710220986,36.0,1572.0423238605322,400.7119161849533,353.08972246623915,211.6222701780601,219.81020503086305,126.25576644083276,178.04664765215145,111.098835568343,114.37900689609012,119.04280596024678,11,-649,2,0,1,3,4,5,6,10,8,11,-34,-35,-40,-43,-76,-81,-82,-84,-86,-88,0
sleep,17294,7,35.56785188,129.24564244,0.0,-0.47105917,-0.7835025,9.771336,0.0015978955,-0.0011984216,0.0022636852,20.77651739345565,35.0,1964.366686295827,558.8257798004321,361.91767267120457,258.5242017591781,177.26752265420578,104.60534614401465,159.20074763035177,118.05790816217848,110.2196446768505,131.66522137820178,11,-649,2,0,1,3,4,5,6,10,8,11,-34,-35,-40,-43,-76,-81,-82,-84,-86,-88,0
sleep,17299,7,35.56785188,129.24564244,0.0,-0.47105917,-0.7835025,9.771336,0.0015978955,-0.0011984216,-0.0021305273,23.44209648958293,44.0,2830.571864166288,1133.4788277100602,567.9178461684734,381.5265256062664,239.42222360934275,159.80718208180437,143.47811644894568,143.7532302544422,122.788060487305,136.1528625621066,11,-649,2,0,1,3,4,5,6,10,8,11,-34,-35,-40,-43,-76,-81,-82,-84,-86,-88,0
sleep,17304,7,35.56785188,129.24564244,0.0,-0.47105917,-0.7835025,9.771336,0.0015978955,-0.0015978955,0.0017310535,25.313388293485023,52.0,3839.0324894108608,765.3364959008065,279.7299847683664,316.0555903674909,257.3952162588111,142.45637602967847,156.19285999112375,129.0379198087448,112.4643345778586,112.55651740328612,11,-649,2,0,1,3,4,5,6,10,8,11,-34,-35,-40,-43,-76,-81,-82,-84,-86,-88,0
sleep,17309,7,35.56785188,129.24564244,0.0,-0.47105917,-0.7835025,9.771336,0.0015978955,-0.0013315795,0.0017310535,23.589227942788256,43.0,2111.186274840164,1027.6868404019683,228.2223837504012,151.7701286305587,161.78797239207492,141.23225335551845,145.96419409044208,119.70771203127636,105.7283508970538,116.8746663048008,11,-649,2,0,1,3,4,5,6,10,8,11,-34,-35,-40,-43,-76,-81,-82,-84,-86,-88,0
sleep,17314,7,35.56785188,129.24564244,0.0,-0.47105917,-0.7835025,9.771336,0.0021305273,-0.0010652636,0.0011984216,22.95520467739546,41.0,880.7228019409774,648.0872648035883,385.1605397763386,201.7815512048701,167.5919847446053,131.3967450133135,137.83622239524684,120.21691101867094,129.50669982159863,163.49913123609716,11,-649,2,0,1,3,4,5,6,10,8,11,-34,-35,-40,-43,-76,-81,-82,-84,-86,-88,0
sleep,17319,7,35.56785188,129.24564244,0.0,-0.47105917,-0.7835025,9.771336,0.0018642114,-0.0013315795,-0.003462107,19.312427088649557,32.0,575.8247829247065,481.5141654313009,340.3423821145437,176.5517425331766,164.1115844872909,153.79521660576384,120.60191802436827,113.98294437971464,103.18546433153134,139.74546563095825,11,-649,2,0,1,3,4,5,6,10,8,11,-34,-35,-40,-43,-76,-81,-82,-84,-86,-88,0
sleep,17324,7,35.56785188,129.24564244,0.0,-0.47105917,-0.7835025,9.771336,0.0017310535,-0.0011984216,0.003328949,20.28742317575229,33.0,566.9342738883031,560.1094966749159,298.72681023504293,231.97434347583768,135.4408470584299,137.71018844957442,125.49150204758055,131.35110488862293,120.47522951778454,122.92428782924588,11,-649,2,0,1,3,4,5,6,10,8,11,-34,-35,-40,-43,-76,-81,-82,-84,-86,-88,0
sleep,17329,7,35.56785188,129.24564244,0.0,-0.47105917,-0.7835025,9.771336,0.0015978955,-0.0019973693,0.003462107,18.94705999836121,30.0,1913.261681090356,923.8272156300864,480.7323965198025,231.5931579073641,207.9265464256868,184.7998705517585,138.2089460931195,125.62476752664152,128.9091492713316,150.5472231607429,11,-649,2,0,1,3,4,5,6,10,8,11,-34,-35,-40,-43,-76,-81,-82,-84,-86,-88,0
sleep,17334,7,35.56785188,129.24564244,0.0,-0.47105917,-0.7835025,9.771336,0.0014647375,-0.0011984216,0.0021305273,20.57897570979705,39.0,2689.385076233949,864.3130870573292,336.8937970429809,253.80338377419835,191.9938489625647,159.85884667605163,134.70799170569816,115.87863526765396,130.14745643267435,138.70562236169738,11,-649,2,0,1,3,4,5,6,10,8,11,-34,-35,-40,-43,-76,-81,-82,-84,-86,-88,0
sleep,17339,7,35.56785188,129.24564244,0.0,-0.47105917,-0.7835025,9.771336,0.0017310535,-0.0013315795,0.002530001,21.80207025031465,39.0,1700.1728475527336,756.127797550895,291.6952705225187,235.0323157532691,310.7276923961471,126.41090026473024,162.78591217278804,119.54209020343816,125.1477410217724,212.59326753231625,11,-649,2,0,1,3,4,5,6,10,8,11,-34,-35,-40,-43,-76,-81,-82,-84,-86,-88,0
sleep,17344,7,35.56785188,129.24564244,0.0,-0.47105917,-0.7835025,9.771336,0.0018642114,-0.00079894776,0.00585895,19.994361661444703,41.0,2039.7201174603688,562.7126639724975,466.26427596214256,231.18463626715533,197.96174339565923,162.21441680164483,155.24211241333688,121.49449419938576,140.74385118340973,142.77836288338304,11,-649,2,0,1,3,4,5,6,10,8,11,-34,-35,-40,-43,-76,-81,-82,-84,-86,-88,0
sleep,17349,7,35.56785188,129.24564244,0.0,-0.47105917,-0.7835025,9.771336,0.0014647375,-0.00039947388,0.0021305273,18.80650930988653,28.0,1056.8902010157422,656.4394860906575,305.4372855893338,208.6856624279286,180.857936567294,136.3420618672772,152.7134080225503,121.3759786214418,137.90024638362698,138.6017184269015,11,-649,2,0,1,3,4,5,6,10,8,11,-34,-35,-40,-43,-76,-81,-82,-84,-86,-88,0
sleep,17355,7,35.56785188,129.24564244,0.0,-0.47105917,-0.7835025,9.771336,0.0022636852,-0.0009321057,-0.0014647375,18.647381437618343,29.0,905.9498596878468,774.4789782422768,327.0301570115258,251.2032182965233,175.97331025880143,175.33193565880737,135.6240688008222,132.68805907865183,109.4878618888382,139.4550622624375,11,-649,2,0,1,3,4,5,6,10,8,11,-34,-35,-40,-43,-76,-81,-82,-84,-86,-88,0
sleep,17360,7,35.56785188,129.24564244,0.0,-0.47105917,-0.7835025,9.771336,0.0015978955,-0.0014647375,0.0047936863,19.705873451340448,32.0,2643.205357734112,503.523012940918,356.4770751546138,208.97388052509717,204.07490394964825,133.25297413532877,111.6578619287883,159.72289830827205,118.98889684439862,149.6960203602829,11,-649,2,0,1,3,4,5,6,10,8,11,-34,-35,-40,-43,-76,-81,-82,-84,-86,-88,0
sleep,17365,7,35.56785188,129.24564244,0.0,-0.47105917,-0.7835025,9.771336,0.0018642114,-0.0011984216,-0.00013315796,20.205321440743248,32.0,1441.8966841163744,347.58916163043494,350.057501640226,250.37133913899964,176.11036532367712,157.16895104681058,173.73526316514827,127.25209370016825,132.27358278801003,127.215692498392,11,-649,2,0,1,3,4,5,6,10,8,11,-34,-35,-40,-43,-76,-81,-82,-84,-86,-88,0
sleep,17370,7,35.56785188,129.24564244,0.0,-0.47105917,-0.7835025,9.771336,0.0022636852,-0.0013315795,0.0018642114,17.579638284479792,27.0,1650.5681830158364,609.154709540496,272.5561787973439,240.01110933515145,128.00303854031387,140.29212583677526,164.0190052198575,133.7214710711473,124.2937844071088,140.67951763171283,11,-649,2,0,1,3,4,5,6,10,8,11,-34,-35,-40,-43,-76,-81,-82,-84,-86,-88,0
sleep,17375,7,35.56785188,129.24564244,0.0,-0.47105917,-0.7835025,9.771336,0.0014647375,-0.0015978955,0.005060002,20.05377079528152,32.0,1244.9080245853895,525.9485514092191,238.9935777624272,226.06410094916976,155.36273922029514,169.70278550971614,133.8527253027764,120.91440896237306,128.62126264587582,164.55651252220466,11,-649,2,0,1,3,4,5,6,10,8,11,-34,-35,-40,-43,-76,-81,-82,-84,-86,-88,0
sleep,17380,7,35.56785188,129.24564244,0.0,-0.47105917,-0.7835025,9.771336,0.0018642114,-0.0015978955,-0.003462107,30.26459731990356,135.0,6491.027338965758,4035.045025594575,1080.658588822766,846.854177483437,443.4512956256317,321.5213634280136,399.89635059802384,388.1767980254521,418.86261268031626,547.21546130268,11,-649,2,0,1,3,4,5,6,10,8,11,-34,-35,-40,-43,-76,-81,-82,-84,-86,-88,0
sleep,17385,7,35.56785188,129.24564244,0.0,-0.47105917,-0.7835025,9.771336,0.0018642114,-0.0018642114,0.0041278964,23.41334591255734,53.0,2434.332849970137,491.5543590367565,314.861775204093,249.35483920026772,243.9664968846532,212.42869248583955,206.4612739838384,197.3084325634273,280.2937737374946,399.6780879649721,11,-649,2,0,1,3,4,5,6,10,8,11,-34,-35,-40,-43,-76,-81,-82,-84,-86,-88,0
sleep,17390,7,35.56785188,129.24564244,0.0,-0.47105917,-0.7835025,9.771336,0.0010652636,-0.0017310535,0.002929475,21.54649113436136,41.0,2906.5505413185097,805.0677791245491,273.15105233305707,231.66006950894027,213.1592125789601,175.2837207969399,174.31623353791224,136.48273094711624,126.03135442939332,137.83682815842042,11,-649,2,0,1,3,4,5,6,10,8,11,-34,-35,-40,-43,-76,-81,-82,-84,-86,-88,0
sleep,17395,7,35.56785188,129.24564244,0.0,-0.47105917,-0.7835025,9.771336,0.0013315795,-0.0011984216,0.0019973693,20.85465984022222,39.0,1358.356679652435,515.6074974914793,299.2554638321674,234.16901494595356,142.3354640298373,136.5548084327403,144.23718327331852,97.98651546804813,112.60927423233146,132.25315681141424,15,-658,2,0,3,1,4,5,6,7,8,10,-34,-38,-45,-45,-78,-80,-84,-84,-85,-85,0
sleep,17400,7,35.56785188,129.24564244,0.0,-0.47105917,-0.7835025,9.771336,0.0018642114,-0.0014647375,-0.0019973693,22.57623004457688,40.0,2643.618818880553,791.0328070132497,433.9514704549184,252.23890461009867,391.62529247043295,139.25014913328383,151.09143474656284,156.58696836614243,120.56400126461888,140.22750016752858,11,-660,2,0,1,3,15,5,6,10,7,11,-34,-38,-44,-45,-73,-81,-84,-84,-87,-90,0
sleep,17405,7,35.56785188,129.24564244,0.0,-0.47105917,-0.7835025,9.771336,0.0014647375,-0.0013315795,0.002663159,21.69405271265031,41.0,1497.7257289460713,592.6440267317361,428.7527768594827,373.8552301417976,414.6777672955316,168.2519632591146,210.6007211563538,147.7030155171301,116.74440461840388,129.72806874426155,11,-660,2,0,1,3,15,5,6,10,7,11,-34,-38,-44,-45,-73,-81,-84,-84,-87,-90,0
sleep,17410,7,35.56785188,129.24564244,0.0,-0.47105917,-0.7835025,9.771336,0.0023968432,-0.0014647375,0.0049268445,21.50923399308008,41.0,1756.708362069125,504.874163528492,288.53303446627166,244.1456478376808,270.63388418570884,131.36423216937033,155.6648876778971,128.54295755852797,111.1497363610104,128.49077881212975,11,-660,2,0,1,3,15,5,6,10,7,11,-34,-38,-44,-45,-73,-81,-84,-84,-87,-90,0
sleep,17415,7,35.56785188,129.24564244,0.0,-0.47105917,-0.7835025,9.771336,0.0014647375,-0.0017310535,-0.0038615807,26.46819300223029,50.0,2609.957614923652,1335.6673045235482,757.6578778070937,483.5700298045024,186.417158007309,201.91037457659755,153.20894365341297,132.49593482553377,128.60858784594268,126.85700038128242,11,-660,2,0,1,3,15,5,6,10,7,11,-34,-38,-44,-45,-73,-81,-84,-84,-87,-90,0
sleep,17420,7,35.56785188,129.24564244,0.0,-0.47105917,-0.7835025,9.771336,0.0014647375,-0.0017310535,-0.0035952649,20.9087147248832,39.0,1066.5844308227267,410.9276759337658,231.6670161571313,203.14512410719385,121.70584551554477,162.58594099929917,149.27590676839756,119.2561308683382,132.95951003062737,138.311407787528,11,-660,2,0,1,3,15,5,6,10,7,11,-34,-38,-44,-45,-73,-81,-84,-84,-87,-90,0
sleep,17425,7,35.56785188,129.24564244,0.0,-0.47105917,-0.7835025,9.771336,0.0018642114,-0.0014647375,0.0039947387,20.28135118167756,31.0,2365.3800976195234,980.9670244122364,333.05795848225733,243.1127905782214,210.0446488737598,192.97387404074996,149.9367875469492,105.57030585183256,129.3239047809149,126.62027535317348,11,-660,2,0,1,3,15,5,6,10,7,11,-34,-38,-44,-45,-73,-81,-84,-84,-87,-90,0
sleep,17430,7,35.56785188,129.24564244,0.0,-0.47105917,-0.7835025,9.771336,0.0022636852,-0.0013315795,-0.0005326318,21.06428249887065,36.0,1958.4052813797057,520.390781360963,298.64889136857687,205.5138482584292,161.85968606854647,168.38918256891503,147.48133672394937,147.59250892332932,121.54840619024066,193.47428457018387,11,-660,2,0,1,3,15,5,6,10,7,11,-34,-38,-44,-45,-73,-81,-84,-84,-87,-90,0
sleep,17435,7,35.56785188,129.24564244,0.0,-0.47105917,-0.7835025,9.771336,0.0018642114,-0.00079894776,-0.00652474,26.95537863300244,78.0,5524.011445715413,2404.6469915519183,2329.112872037717,679.0688351635604,518.8764648870581,286.32172046216016,335.64164175766354,272.65897572595,354.18832231630967,419.2848418106338,11,-660,2,0,1,3,15,5,6,10,7,11,-34,-38,-44,-45,-73,-81,-84,-84,-87,-90,0
sleep,17440,7,35.56785188,129.24564244,0.0,-0.47105917,-0.7835025,9.771336,0.0019973693,-0.0011984216,0.002663159,20.13282876285308,34.0,2532.4957488152427,1010.6681315475846,333.2126593812089,197.67077195140573,203.65186943950235,172.72570852360892,147.2172936335283,123.4144728608998,116.73127034552348,141.46051905847318,11,-660,2,0,1,3,15,5,6,10,7,11,-34,-38,-44,-45,-73,-81,-84,-84,-87,-90,0
sleep,17445,7,35.56785188,129.24564244,0.0,-0.47105917,-0.7835025,9.771336,0.0014647375,-0.0014647375,-0.002796317,21.52579239806763,41.0,2434.737122821903,835.7136541538837,319.6364779156257,166.25074898987864,194.34287822562732,147.40450783757032,166.32022373287413,112.3267371858924,112.26056064548112,155.7961032718235,11,-660,2,0,1,3,15,5,6,10,7,11,-34,-38,-44,-45,-73,-81,-84,-84,-87,-90,0
sleep,17450,7,35.56785188,129.24564244,0.0,-0.47105917,-0.7835025,9.771336,0.0019973693,-0.0010652636,-0.0005326318,25.913630943135843,64.0,3554.9805721136017,1068.9668404060967,335.3437238622139,333.99050820669686,171.3522788170935,198.56502486398088,152.61745713233697,182.48317949283089,220.09476317007577,218.2452113317948,11,-660,2,0,1,3,15,5,6,10,7,11,-34,-38,-44,-45,-73,-81,-84,-84,-87,-90,0
sleep,17455,7,35.56785188,129.24564244,0.0,-0.47105917,-0.7835025,9.771336,0.0017310535,-0.0013315795,-0.00039947388,20.583798395719214,40.0,991.7125248272098,1193.215901338414,493.5717459847508,199.38978847021528,172.40902909949807,207.60118402048712,127.81409061702172,135.64172730332152,130.26697997579703,138.15784227993396,11,-660,2,0,1,3,15,5,6,10,7,11,-34,-38,-44,-45,-73,-81,-84,-84,-87,-90,0
sleep,17460,7,35.56785188,129.24564244,0.0,-0.47105917,-0.7835025,9.771336,0.0014647375,-0.0015978955,-0.002530001,21.36888588839416,36.0,3398.810272258136,1000.5286325172248,546.4127906120325,226.49185254348035,245.6018445181029,195.89109627253893,129.771081202495,114.54252246148124,134.90879994663183,155.40689285290608,11,-660,2,0,1,3,15,5,6,10,7,11,-34,-38,-44,-45,-73,-81,-84,-84,-87,-90,0
sleep,17465,7,35.56785188,129.24564244,0.0,-0.47105917,-0.7835025,9.771336,0.0018642114,-0.0009321057,-0.003195791,21.99250290241152,39.0,548.337318862506,415.4489983041086,390.22722214761023,159.839794544083,123.52078651122184,156.06256682659526,129.69839178497585,166.4700028610092,121.92944148103022,135.72864195365102,11,-660,2,0,1,3,15,5,6,10,7,11,-34,-38,-44,-45,-73,-81,-84,-84,-87,-90,0
sleep,17470,7,35.56785188,129.24564244,0.0,-0.47105917,-0.7835025,9.771336,0.0019973693,-0.0013315795,0.0049268445,21.242286714649698,34.0,919.0741309945438,548.2621304417619,336.8195150856256,251.68782713740327,170.1768713054265,156.99306186535088,145.71826763521165,125.91438738404996,125.20249247074403,128.20968327884344,11,-660,2,0,1,3,15,5,6,10,7,11,-34,-38,-44,-45,-73,-81,-84,-84,-87,-90,0
sleep,17475,7,35.56785188,129.24564244,0.0,-0.47105917,-0.7835025,9.771336,0.0030626329,-0.0005326318,-0.005060002,20.35255477948619,43.0,1207.4201430331643,879.1127083397807,309.8753151945656,276.2057488869988,186.61545439719896,178.82746573367626,152.90563383899925,118.10288876480644,103.98230134817685,139.5845076081775,11,-660,2,0,1,3,15,5,6,10,7,11,-34,-38,-44,-45,-73,-81,-84,-84,-87,-90,0
sleep,17480,7,35.56785188,129.24564244,0.0,-0.47105917,-0.7835025,9.771336,0.0014647375,-0.0019973693,0.0035952649,18.80006065497158,34.0,1594.0062839790885,834.0701981865204,422.46764674296014,244.3893123728972,142.99438792027013,202.6563186212387,153.54082561960385,135.81579451602497,128.2233253848051,131.31187582903604,11,-660,2,0,1,3,15,5,6,10,7,11,-34,-38,-44,-45,-73,-81,-84,-84,-87,-90,0
sleep,17485,7,35.56785188,129.24564244,0.0,-0.47105917,-0.7835025,9.771336,0.0017310535,-0.0011984216,0.00066578976,21.06720256552841,39.0,2909.997362007701,768.8574471721595,273.53292881251616,258.5666351506334,185.08119523895297,162.99552740017572,130.0451329179134,143.86920039741847,106.32612249820016,120.09339001452928,11,-660,2,0,1,3,15,5,6,10,7,11,-34,-38,-44,-45,-73,-81,-84,-84,-87,-90,0
sleep,17491,7,35.56785188,129.24564244,0.0,-0.47105917,-0.7835025,9.771336,0.0018642114,-0.00079894776,0.0019973693,20.00119947590893,34.0,1391.5912445079011,585.0280673075774,262.18857321856774,220.8856763942648,212.57930509183464,141.96241569214962,135.5691171169943,137.47215597481687,117.11807374418282,127.06291845810108,11,-660,2,0,1,3,15,5,6,10,7,11,-34,-38,-44,-45,-73,-81,-84,-84,-87,-90,0
sleep,17496,7,35.56785188,129.24564244,0.0,-0.47105917,-0.7835025,9.771336,0.0018642114,-0.0011984216,-0.0002663159,22.020254125917823,39.0,1273.5814504083105,267.7136328265447,368.456921409566,189.4675822192976,215.5558421126426,144.12172989313103,138.92297618231797,111.02724916405474,121.61102329415628,136.82677669698165,11,-660,2,0,1,3,15,5,6,10,7,11,-34,-38,-44,-45,-73,-81,-84,-84,-87,-90,0
sleep,17501,7,35.56785188,129.24564244,0.0,-0.47105917,-0.7835025,9.771336,0.0017310535,-0.0014647375,0.0035952649,22.83819073111506,43.0,780.1456470171636,611.5741211694576,211.85518087309413,228.46833149598956,186.24011907798183,138.68953237007136,126.57384450820712,116.57606531099184,139.8744523366808,147.42073871293903,11,-660,2,0,1,3,15,5,6,10,7,11,-34,-38,-44,-45,-73,-81,-84,-84,-87,-90,0
sleep,17506,7,35.56785188,129.24564244,0.0,-0.47105917,-0.7835025,9.771336,0.0019973693,-0.0017310535,-0.0018642114,21.568721669524017,37.0,1247.048970791063,550.4787908148097,388.9569127241618,190.60511495003547,204.1325449869668,192.60020182621545,136.1549425850425,144.8818218198276,123.182026859541,128.76515026528162,11,-660,2,0,1,3,15,5,6,10,7,11,-34,-38,-44,-45,-73,-81,-84,-84,-87,-90,0
sleep,17511,7,35.56785188,129.24564244,0.0,-0.47105917,-0.7835025,9.771336,0.0017310535,-0.0013315795,-0.0011984216,24.084112818360246,41.0,1437.4577352410563,807.212608645715,308.5063247646072,180.3093711384177,156.25095155809962,220.392287981329,181.9851366214596,122.43617013666494,138.47191702031918,137.3012125604345,11,-660,2,0,1,3,15,5,6,10,7,11,-34,-38,-44,-45,-73,-81,-84,-84,-87,-90,0
sleep,17516,7,35.56785188,129.24564244,0.0,-0.47105917,-0.7835025,9.771336,0.0017310535,-0.0013315795,-0.008921583,20.916689199542585,36.0,1499.2512969633367,639.7212744875354,310.30684253612367,176.7059496777069,256.97799341540656,169.7657703589553,188.4227822184204,215.19504664015705,106.74711972883571,128.92788456347012,11,-660,2,1,0,3,4,6,7,8,11,16,-34,-36,-37,-44,-77,-83,-85,-85,-88,-91,0
sleep,17521,7,35.56785188,129.24564244,0.0,-0.47105917,-0.7835025,9.771336,0.0017310535,-0.0013315795,-0.00066578976,19.29060952871852,34.0,1124.52929183608,775.0839590656473,432.88828515962456,192.24145712512183,186.3770521815293,163.05908113448038,134.5241192243083,110.88358279821053,114.9056644928789,136.23338561242005,11,-660,2,1,0,3,4,6,7,8,11,16,-34,-36,-37,-44,-77,-83,-85,-85,-88,-91,0
sleep,17526,7,35.56785188,129.24564244,0.0,-0.47105917,-0.7835025,9.771336,0.0019973693,-0.0013315795,0.003328949,17.993251617631127,25.0,1208.2008542477552,409.65569043372,374.3689600143879,294.16928606816384,254.66785056986143,171.46821984565463,138.32362242084216,133.3984927739859,114.28721988361846,126.04231153941372,13,-656,2,0,3,1,4,5,6,8,10,7,-34,-37,-46,-46,-77,-80,-83,-84,-84,-85,0
sleep,17531,7,35.56785188,129.24564244,0.0,-0.47105917,-0.7835025,9.771336,0.0015978955,-0.0017310535,0.00079894776,19.896007647034743,36.0,1646.5141889496183,455.5720666788778,221.94361073357143,221.3366626590741,167.61919311504553,139.7431811961026,131.22166096396248,131.22178290397505,126.0310039191872,137.02303607297904,13,-656,2,0,3,1,4,5,6,8,10,7,-34,-37,-46,-46,-77,-80,-83,-84,-84,-85,0
sleep,17536,7,35.56785188,129.24564244,0.0,-0.47105917,-0.7835025,9.771336,0.0021305273,-0.0014647375,0.0043942127,21.074607692301225,35.0,1499.345320192034,436.0881747093702,308.136807740363,206.99797223887805,178.19740573995057,118.66820387731566,119.20529319998651,139.6689138856206,146.96837021471435,127.2721708722426,13,-656,2,0,3,1,4,5,6,8,10,7,-34,-37,-46,-46,-77,-80,-83,-84,-84,-85,0
sleep,17541,7,35.56785188,129.24564244,0.0,-0.47105917,-0.7835025,9.771336,0.0017310535,-0.0019973693,0.0014647375,22.64984407940563,39.0,721.8379959465283,448.785512554152,290.14917657656923,269.6859575519257,219.83503533253497,175.62908146529855,163.75890741140032,110.74043298907912,105.63416623672737,129.75023378060246,13,-656,2,0,3,1,4,5,6,8,10,7,-34,-37,-46,-46,-77,-80,-83,-84,-84,-85,0
sleep,17546,7,35.56785188,129.24564244,0.0,-0.47105917,-0.7835025,9.771336,0.0017310535,-0.0011984216,-0.0022636852,20.77090988357376,38.0,1223.8663724238263,596.6251326374711,406.7999222356483,502.8282033794601,206.57621172982823,190.34502681686985,167.4488987431527,136.84464791930262,106.5791174615066,124.7296996689107,13,-656,2,0,3,1,4,5,6,8,10,7,-34,-37,-46,-46,-77,-80,-83,-84,-84,-85,0
sleep,17551,7,35.56785188,129.24564244,0.0,-0.47105917,-0.7835025,9.771336,0.0019973693,-0.00079894776,-0.002663159,17.49986788547601,28.0,802.077319266626,485.83265331056384,252.3317013678625,253.6197381681314,194.5140134056126,136.59825823840154,123.1783036491417,129.60912177763956,133.93115541138843,139.98178410164374,13,-656,2,0,3,1,4,5,6,8,10,7,-34,-37,-46,-46,-77,-80,-83,-84,-84,-85,0
sleep,17556,7,35.56785188,129.24564244,0.0,-0.47105917,-0.7835025,9.771336,0.0018642114,-0.0013315795,0.0011984216,21.94393536309868,52.0,1158.957695307582,525.0797915333171,268.11303065338416,211.2541316003017,190.82049604676692,170.55252197002216,161.4338728066019,135.35812641437005,265.2596713492914,391.7402413412554,13,-656,2,0,3,1,4,5,6,8,10,7,-34,-37,-46,-46,-77,-80,-83,-84,-84,-85,0
sleep,17561,7,35.56785188,129.24564244,0.0,-0.47105917,-0.7835025,9.771336,0.0018642114,-0.0017310535,-0.0013315795,27.99530734758125,91.0,956.3807215081918,1030.5103671448628,458.664051544588,434.84044066351765,284.3170655206838,274.7910533572196,319.06892843026554,306.99116894830524,402.6408695932891,772.4190208499568,13,-656,2,0,3,1,4,5,6,8,10,7,-34,-37,-46,-46,-77,-80,-83,-84,-84,-85,0
sleep,17566,7,35.56785188,129.24564244,0.0,-0.47105917,-0.7835025,9.771336,0.0017310535,-0.0010652636,0.0015978955,30.58493809888772,109.0,2410.010902695716,2101.9750762269264,594.9485800949495,762.1981161884823,1110.037019073746,490.36531064555294,952.3697584876973,595.0582421744888,852.9335497489518,1266.1508301627189,13,-656,2,0,3,1,4,5,6,8,10,7,-34,-37,-46,-46,-77,-80,-83,-84,-84,-85,0
sleep,17571,7,35.56785188,129.24564244,0.0,-0.47105917,-0.7835025,9.771336,0.0018642114,-0.0014647375,0.005326318,22.40458705114756,43.0,1780.235873537,394.4955915834277,288.13719264463816,187.4570426106185,155.76580657253092,204.47135401458016,133.90815415929293,127.22236432149832,130.15859192760254,119.4215916328058,13,-656,2,0,3,1,4,5,6,8,10,7,-34,-37,-46,-46,-77,-80,-83,-84,-84,-85,0
sleep,17576,7,35.56785188,129.24564244,0.0,-0.47105917,-0.7835025,9.771336,0.0018642114,-0.0009321057,0.00079894776,20.560089267895545,36.0,927.0438305429044,546.7372413080238,212.3378610984024,145.6228722605042,186.70143608506763,165.95221032270388,128.0135759350878,115.44406177848684,104.08503193653938,116.80942050774678,13,-656,2,0,3,1,4,5,6,8,10,7,-34,-37,-46,-46,-77,-80,-83,-84,-84,-85,0
sleep,17581,7,35.56785188,129.24564244,0.0,-0.47105917,-0.7835025,9.771336,0.0023968432,-0.0015978955,-0.003462107,21.052278243966715,33.0,962.2371501108876,790.8161424094901,386.85979552591874,411.3147482152887,162.94090538889347,194.25892704898547,200.8273977184867,116.6205534015742,112.8869564018395,137.39927017969129,13,-656,2,0,3,1,4,5,6,8,10,7,-34,-37,-46,-46,-77,-80,-83,-84,-84,-85,0
sleep,17586,7,35.56785188,129.24564244,0.0,-0.47105917,-0.7835025,9.771336,0.0011984216,-0.0019973693,0.0023968432,20.68113357283164,41.0,2148.7699725285897,767.0294448966649,487.4735000033484,388.6075985681357,248.1428258407257,148.98986625990017,220.45172730112327,109.73894139461474,126.3262680035421,136.13781398670866,13,-656,2,0,3,1,4,5,6,8,10,7,-34,-37,-46,-46,-77,-80,-83,-84,-84,-85,0
sleep,17591,7,35.56785188,129.24564244,0.0,-0.47105917,-0.7835025,9.771336,0.0022636852,-0.0017310535,-0.0021305273,20.922601670839462,39.0,3075.2040095071443,1172.106437964548,512.9631602752305,354.4418664859363,278.31907327843123,211.08319456182085,135.5909316568873,158.51416158172458,156.39589478791984,165.6235035019264,13,-656,2,0,3,1,4,5,6,8,10,7,-34,-37,-46,-46,-77,-80,-83,-84,-84,-85,0
sleep,17596,7,35.56785188,129.24564244,0.0,-0.47105917,-0.7835025,9.771336,0.0017310535,-0.0014647375,-0.0010652636,19.378082812871963,30.0,947.8731714138002,647.932616019006,486.1619210418066,245.0172837196841,163.94805330357255,167.70460474023668,140.67290598267536,139.1875392507609,131.40905358872644,151.50451132644866,13,-656,2,0,3,1,4,5,6,8,10,7,-34,-37,-46,-46,-77,-80,-83,-84,-84,-85,0
sleep,17601,7,35.56785188,129.24564244,0.0,-0.47105917,-0.7835025,9.771336,0.0018642114,-0.0017310535,-0.0005326318,21.510064270315816,40.0,1431.8537087042407,795.1263638071975,386.3912723275102,257.7328725943087,171.2020161542003,200.6613859562212,193.06348310748783,142.44018663633202,168.97102799010025,181.7708445294093,13,-656,2,0,3,1,4,5,6,8,10,7,-34,-37,-46,-46,-77,-80,-83,-84,-84,-85,0
sleep,17606,7,35.56785188,129.24564244,0.0,-0.47105917,-0.7835025,9.771336,0.0015978955,-0.0015978955,0.0018642114,21.56918606033013,39.0,952.6542125693638,531.541677471524,507.379252728894,406.6619502993108,385.0715438312657,170.66818153597853,196.79725526943105,127.65758489319316,161.00520695564583,172.91240409732555,13,-656,2,0,3,1,4,5,6,8,10,7,-34,-37,-46,-46,-77,-80,-83,-84,-84,-85,0
sleep,17611,7,35.56785188,129.24564244,0.0,-0.47105917,-0.7835025,9.771336,0.0019973693,-0.0010652636,-0.0009321057,19.717812309884582,32.0,1083.3836236074744,657.2759061051459,387.40558621694015,236.05448696409584,144.8298560156973,156.24004343052573,142.64506294544836,108.282211560272,137.4826747206543,134.43555767584215,13,-656,2,0,3,1,4,5,6,8,10,7,-34,-37,-46,-46,-77,-80,-83,-84,-84,-85,0
sleep,17616,7,35.56785188,129.24564244,0.0,-0.47105917,-0.7835025,9.771336,0.0013315795,-0.0017310535,0.002663159,22.319055763669464,49.0,4226.054591851391,799.4496778982527,486.91420217598574,481.2542804355801,301.8628945461389,164.48074889855607,136.80983969611373,194.41584142430324,148.73611615945885,179.8254900922064,13,-656,2,0,3,1,4,5,6,8,10,7,-34,-37,-46,-46,-77,-80,-83,-84,-84,-85,0
sleep,17621,7,35.56785188,129.24564244,0.0,-0.47105917,-0.7835025,9.771336,0.0019973693,-0.0013315795,-0.0013315795,21.2006965690456,39.0,1033.5267298303418,353.1013973175768,291.1843960057798,287.9708028685102,191.72043781137785,167.9126195034491,163.8441373211637,128.93963734570517,123.33027393616732,150.33750942628836,13,-656,2,0,3,1,4,5,6,8,10,7,-34,-37,-46,-46,-77,-80,-83,-84,-84,-85,0
sleep,17627,7,35.56785188,129.24564244,0.0,-0.47105917,-0.7835025,9.771336,0.0021305273,-0.0014647375,0.0013315795,21.452425493944407,37.0,1796.2896207626063,619.2592145742816,268.8061266488554,254.93232388376703,246.08474989079104,187.93098146965437,198.56419930110732,124.0524720607022,117.11668853391032,141.26571572186103,13,-656,2,0,3,1,4,5,6,8,10,7,-34,-37,-46,-46,-77,-80,-83,-84,-84,-85,0
sleep,17632,7,35.56785188,129.24564244,0.0,-0.47105917,-0.7835025,9.771336,0.0021305273,-0.0013315795,-0.003195791,21.16577912195455,34.0,1038.625522697943,686.2306906609884,313.71760191233875,295.9125833308185,173.3355640817836,154.5658910310548,166.46785710700843,120.17889726338572,129.47554252071214,161.31985708834668,13,-656,2,0,3,1,4,5,6,8,10,7,-34,-37,-46,-46,-77,-80,-83,-84,-84,-85,0
sleep,17637,7,35.56785188,129.24564244,0.0,-0.47105917,-0.7835025,9.771336,0.0017310535,-0.0019973693,0.0021305273,19.197010443692637,35.0,1104.6838338806156,621.3371920749403,442.9630748020939,242.29792456239025,188.3818233645268,167.89732396406333,133.1496483420073,131.946142474117,132.14574534706003,133.74010369988434,11,-660,0,2,1,3,4,5,6,13,11,17,-33,-34,-40,-46,-78,-81,-82,-87,-87,-92,0
sleep,17642,7,35.56785188,129.24564244,0.0,-0.47105917,-0.7835025,9.771336,0.0017310535,-0.0005326318,0.0002663159,20.759479804812617,35.0,2430.1442743697,423.88536665783766,407.3378064019475,262.85650900756656,175.998906883735,170.92758704874723,207.75553512203263,164.4607839863526,158.14713600763713,261.09791916670883,10,-667,0,2,1,3,5,6,10,7,14,17,-34,-34,-38,-46,-80,-83,-84,-87,-89,-92,0
sleep,17647,7,35.56785188,129.24564244,0.0,-0.47105917,-0.7835025,9.771336,0.0018642114,-0.0019973693,0.005060002,21.978418360264897,39.0,1251.7695391580403,608.9438074002459,351.40061316610377,284.5668429455761,211.6531469961856,124.42745694949976,144.04201159967636,129.5167629016594,124.6623613496684,123.26352183254583,10,-667,0,2,1,3,5,6,10,7,14,17,-34,-34,-38,-46,-80,-83,-84,-87,-89,-92,0
sleep,17652,7,35.56785188,129.24564244,0.0,-0.47105917,-0.7835025,9.771336,0.0023968432,-0.0014647375,0.0010652636,17.82579789640973,26.0,860.5607819603227,367.75151448899805,376.78342494181175,185.32860446049088,223.72526032144,149.15461446030343,163.88276767591685,120.27041300382416,127.6872297741718,149.10302810562655,10,-667,0,2,1,3,5,6,10,7,14,17,-34,-34,-38,-46,-80,-83,-84,-87,-89,-92,0
sleep,17657,7,35.56785188,129.24564244,0.0,-0.47105917,-0.7835025,9.771336,0.0019973693,-0.0011984216,0.0009321057,20.83424828323663,35.0,746.5471397859037,480.8997294490002,335.56546195714776,248.44690116472364,181.9595562680208,152.87992316635936,150.37138962659637,129.95208447973258,115.31125426845809,156.36627590011094,10,-667,0,2,1,3,5,6,10,7,14,17,-34,-34,-38,-46,-80,-83,-84,-87,-89,-92,0
sleep,17662,7,35.56785188,129.24564244,0.0,-0.47105917,-0.7835025,9.771336,0.0022636852,-0.0013315795,-0.0009321057,21.27746375728266,43.0,948.6238053686336,273.7514834934028,233.11672819279016,182.02121397976083,464.2584883702184,126.32725433710829,223.2604842678348,205.6791050551477,147.36578541112468,190.82446304739943,10,-667,0,2,1,3,5,6,10,7,14,17,-34,-34,-38,-46,-80,-83,-84,-87,-89,-92,0
sleep,17667,7,35.56785188,129.24564244,0.0,-0.47105917,-0.7835025,9.771336,0.0011984216,-0.0013315795,0.003462107,19.24427845403885,33.0,623.4429047894907,517.4708336422607,279.28012924606566,93.5826487995096,152.63310600038088,133.6029921484498,112.20151979303776,127.88347546124474,131.21404193107492,134.60478381344552,10,-667,0,2,1,3,5,6,10,7,14,17,-34,-34,-38,-46,-80,-83,-84,-87,-89,-92,0
sleep,17672,7,35.56785188,129.24564244,0.0,-0.47105917,-0.7835025,9.771336,0.0019973693,-0.0022636852,0.008522109,18.68182445285069,30.0,1113.4331672881465,603.652269398685,497.4637669256968,298.85208552349314,243.10103714362435,199.16715203580037,167.4902024985467,121.35779826747354,151.65516038592452,152.47934274057815,10,-667,0,2,1,3,5,6,10,7,14,17,-34,-34,-38,-46,-80,-83,-84,-87,-89,-92,0
sleep,17677,7,35.56785188,129.24564244,0.0,-0.47105917,-0.7835025,9.771336,0.0023968432,-0.0011984216,-0.00039947388,20.26584330956645,36.0,2384.324894594422,442.3308288771676,450.0000050057048,314.40502402117374,180.26648896949885,188.6111919226092,231.47357571405897,120.20924462264216,101.05970780591686,138.0309182943704,10,-667,0,2,1,3,5,6,10,7,14,17,-34,-34,-38,-46,-80,-83,-84,-87,-89,-92,0
sleep,17682,7,35.56785188,129.24564244,0.0,-0.47105917,-0.7835025,9.771336,0.0019973693,-0.0015978955,0.003195791,18.81743736754018,33.0,958.4736702234068,646.6416524050798,268.80575204413566,218.9845226009014,169.52158718298378,191.79694384553105,138.6897030838928,103.04213532957088,127.8074421181939,115.63603085139364,10,-667,0,2,1,3,5,6,10,7,14,17,-34,-34,-38,-46,-80,-83,-84,-87,-89,-92,0
sleep,17687,7,35.56785188,129.24564244,0.0,-0.47105917,-0.7835025,9.771336,0.0015978955,-0.0011984216,-0.00079894776,20.569101660370983,33.0,685.0205563730267,771.0352808425584,305.78194772654683,283.6420843157341,203.67358841706584,140.80515873778157,190.81034050072597,127.1972516523204,122.74745506957296,133.2977337785459,10,-667,0,2,1,3,5,6,10,7,14,17,-34,-34,-38,-46,-80,-83,-84,-87,-89,-92,0
sleep,17692,7,35.56785188,129.24564244,0.0,-0.47105917,-0.7835025,9.771336,0.0019973693,-0.00066578976,-0.0075900033,20.941256935575097,39.0,999.2012901213408,731.4402324020296,309.4308958022091,250.7100638295774,229.3317246124224,233.80724046137516,158.37826008494537,122.08090080979528,133.92863416131397,134.13554251421584,10,-667,0,2,1,3,5,6,10,7,14,17,-34,-34,-38,-46,-80,-83,-84,-87,-89,-92,0
sleep,17697,7,35.56785188,129.24564244,0.0,-0.47105917,-0.7835025,9.771336,0.0013315795,-0.0013315795,0.0039947387,22.416843102235635,39.0,1583.723123840267,464.4296105640891,328.24611372830304,269.2241094956123,174.75020834177266,182.29084253784103,135.5355628585646,126.16029885810082,101.32376378990249,129.99276560077314,10,-667,0,2,1,3,5,6,10,7,14,17,-34,-34,-38,-46,-80,-83,-84,-87,-89,-92,0
sleep,17702,7,35.56785188,129.24564244,0.0,-0.47105917,-0.7835025,9.771336,0.0018642114,-0.0017310535,-0.0021305273,18.131127850467045,35.0,428.5761178601646,573.2201593527783,263.1278513515761,198.3076937755579,234.89127174118573,147.94516316061328,120.23375155692814,130.67421014792157,115.15606588578326,118.6209532543422,10,-667,0,2,1,3,5,6,10,7,14,17,-34,-34,-38,-46,-80,-83,-84,-87,-89,-92,0
sleep,17707,7,35.56785188,129.24564244,0.0,-0.47105917,-0.7835025,9.771336,0.0013315795,-0.0018642114,0.0035952649,19.58600407759654,36.0,1165.7169803811992,855.5126630485141,391.7159033149512,333.93572729239287,245.0314465409848,185.10368581875613,188.7929306859104,161.0038424860426,199.91218897172013,123.21916790696132,10,-667,0,2,1,3,5,6,10,7,14,17,-34,-34,-38,-46,-80,-83,-84,-87,-89,-92,0
sleep,17712,7,35.56785188,129.24564244,0.0,-0.47105917,-0.7835025,9.771336,0.0019973693,-0.0013315795,0.0011984216,21.722443044285864,40.0,773.9309781376633,782.4105204411978,301.5156280643501,217.89655583054653,161.5655975146867,175.30763702945865,169.0548305682712,118.7158858702007,146.02765147656424,160.2354654162803,10,-667,0,2,1,3,5,6,10,7,14,17,-34,-34,-38,-46,-80,-83,-84,-87,-89,-92,0
sleep,17717,7,35.56785188,129.24564244,0.0,-0.47105917,-0.7835025,9.771336,0.0011984216,-0.0019973693,0.0049268445,19.66343427420876,31.0,1098.2636424125026,365.30433919284326,410.7151809218682,279.61207025018734,386.6923401805069,143.26180609813352,146.9921542423643,122.6190426404536,124.13773657369477,130.632255519847,10,-667,0,2,1,3,5,6,10,7,14,17,-34,-34,-38,-46,-80,-83,-84,-87,-89,-92,0
sleep,17722,7,35.56785188,129.24564244,0.0,-0.47105917,-0.7835025,9.771336,0.0015978955,-0.0017310535,0.0014647375,21.48148696448063,36.0,1501.9480130423574,676.5619277508399,408.4324215938459,249.01180953089997,124.4941901710953,239.14699412040648,228.9467590852166,149.09408396018492,125.6368386504692,127.738327085536,10,-667,0,2,1,3,5,6,10,7,14,17,-34,-34,-38,-46,-80,-83,-84,-87,-89,-92,0
sleep,17727,7,35.56785188,129.24564244,0.0,-0.47105917,-0.7835025,9.771336,0.0015978955,-0.0013315795,0.0009321057,20.389878577497058,46.0,2082.247462742821,689.7411296202836,330.020979840436,274.37446432348275,297.2916297807172,147.01426792473274,164.68621841038876,124.04606058360396,125.61824615897795,124.69322006690544,10,-667,0,2,1,3,5,6,10,7,14,17,-34,-34,-38,-46,-80,-83,-84,-87,-89,-92,0
sleep,17732,7,35.56785188,129.24564244,0.0,-0.47105917,-0.7835025,9.771336,0.0018642114,-0.0011984216,0.0005326318,19.72881564629621,33.0,1405.7387729792874,538.4107147811117,225.35849186531692,216.2488130862793,191.61730732204447,156.11053704536994,166.39484201201782,136.95532752503897,106.40353350391938,143.92514087078197,10,-667,0,2,1,3,5,6,10,7,14,17,-34,-34,-38,-46,-80,-83,-84,-87,-89,-92,0
sleep,17737,7,35.56785188,129.24564244,0.0,-0.47105917,-0.7835025,9.771336,0.0017310535,-0.0015978955,0.003462107,19.601319368015997,32.0,754.8353029834376,427.80077641882406,339.2968717457326,258.95420531888,192.75565685223415,217.2949349695161,236.9445735915599,186.9947047856107,112.45408877002347,156.90313860883742,10,-667,0,2,1,3,5,6,10,7,14,17,-34,-34,-38,-46,-80,-83,-84,-87,-89,-92,0
sleep,17742,7,35.56785188,129.24564244,0.0,-0.47105917,-0.7835025,9.771336,0.0017310535,-0.0014647375,0.0010652636,21.994088004024974,39.0,1049.1484665686671,395.3130796010601,255.8331265154453,227.28459631439117,144.57644052656914,164.41884284890082,171.91079860499107,120.79545698289331,130.21735966809902,131.71507438506032,10,-667,0,2,1,3,5,6,10,7,14,17,-34,-34,-38,-46,-80,-83,-84,-87,-89,-92,0
sleep,17747,7,35.56785188,129.24564244,0.0,-0.47105917,-0.7835025,9.771336,0.0021305273,-0.0017310535,0.0022636852,23.1799749882634,47.0,1120.5040836122353,467.5433359056583,337.0010693942775,520.7302457428766,186.59222734131316,128.79295279585705,161.80628430428814,151.46550421196216,120.2299313168477,146.50578657038423,10,-667,0,2,1,3,5,6,10,7,14,17,-34,-34,-38,-46,-80,-83,-84,-87,-89,-92,0
sleep,17752,7,35.56785188,129.24564244,0.0,-0.47105917,-0.7835025,9.771336,0.0015978955,-0.0009321057,0.0038615807,19.80757686494134,37.0,1935.9020134179268,363.4316871096208,403.23340342093405,332.89275371899726,332.21700662445465,197.66808084370348,146.42908358884978,127.17584842109132,119.40949885786108,134.36880318580828,10,-667,0,2,1,3,5,6,10,7,14,17,-34,-34,-38,-46,-80,-83,-84,-87,-89,-92,0
sleep,17757,7,35.56785188,129.24564244,0.0,-0.47105917,-0.7835025,9.771336,0.0017310535,-0.0014647375,-0.0002663159,20.73271252140522,39.0,2431.370930395944,1012.737252129928,529.7440260124552,247.4004936749612,418.8198189353951,213.5518047369806,152.15618766901625,127.83473303068588,116.57488690069178,104.4082589982356,10,-655,0,2,1,3,5,4,6,8,10,11,-34,-35,-38,-44,-80,-80,-82,-85,-85,-92,0
sleep,17762,7,35.56785188,129.24564244,0.0,-0.47105917,-0.7835025,9.771336,0.0023968432,-0.0015978955,0.0015978955,17.829215028471268,30.0,514.1956282455762,662.4079482798508,336.992412051481,216.7684085672812,148.145690438225,158.31229317813984,147.7548015401845,105.4953546276734,118.87001876292524,129.24385685661164,10,-655,0,2,1,3,5,4,6,8,10,11,-34,-35,-38,-44,-80,-80,-82,-85,-85,-92,0
sleep,17768,7,35.56785188,129.24564244,0.0,-0.47105917,-0.7835025,9.771336,0.0019973693,-0.0015978955,0.003328949,19.68189682020998,32.0,1337.4699576443925,631.9760564173421,288.78102478417526,182.8660174290964,184.64994610875067,413.0009138120532,273.2674332651906,141.18401252270908,151.3219173773901,155.68067861871225,12,-657,0,2,1,3,4,5,6,10,12,11,-34,-35,-38,-44,-81,-81,-82,-84,-88,-90,0
sleep,17773,7,35.56785188,129.24564244,0.0,-0.47105917,-0.7835025,9.771336,0.0014647375,-0.0013315795,0.0013315795,18.528035761382963,30.0,2083.4972893228964,484.6496702380282,372.8573258014783,276.2462044778902,248.34788522368925,182.22943991176973,136.37750346453296,108.90265346831356,112.3371287184026,116.36111993763905,12,-657,0,2,1,3,4,5,6,10,12,11,-34,-35,-38,-44,-81,-81,-82,-84,-88,-90,0
sleep,17778,7,35.56785188,129.24564244,0.0,-0.47105917,-0.7835025,9.771336,0.0021305273,-0.0014647375,0.0014647375,25.33191245339656,62.0,3544.1510884710974,2000.326317809152,568.7996695233193,816.5994943430856,605.3154572983757,469.87809268498825,688.4240505267168,567.4393876165506,377.2386626545352,592.6075731811674,12,-657,0,2,1,3,4,5,6,10,12,11,-34,-35,-38,-44,-81,-81,-82,-84,-88,-90,0
sleep,17783,7,35.56785188,129.24564244,0.0,-0.47105917,-0.7835025,9.771336,0.0017310535,-0.0014647375,-0.002796317,22.48955254851112,70.0,1867.323475494298,3374.615529325509,1127.6815374627663,640.315886735172,396.28209253957135,289.29246462865206,260.8698792691761,176.00949182476867,155.9001152418741,151.54325797121732,12,-657,0,2,1,3,4,5,6,10,12,11,-34,-35,-38,-44,-81,-81,-82,-84,-88,-90,0
sleep,17788,7,35.56785188,129.24564244,0.0,-0.47105917,-0.7835025,9.771336,0.0017310535,-0.0014647375,-0.002663159,22.806131721192397,46.0,1916.4269214356923,854.1859721570147,256.1007477929241,280.6273484859664,218.91599468544425,194.64986157205428,248.18477815008487,159.09887750147675,150.99906547980234,182.05894435557428,12,-657,0,2,1,3,4,5,6,10,12,11,-34,-35,-38,-44,-81,-81,-82,-84,-88,-90,0
sleep,17793,7,35.56785188,129.24564244,0.0,-0.47105917,-0.7835025,9.771336,0.0014647375,-0.0019973693,0.005060002,20.176830085241285,36.0,770.7164498904465,513.2008316096542,274.6218013947755,253.9508817756625,245.50233648627565,196.5373886620498,165.34748394541435,172.60587842358626,165.91249376413552,153.9335224219112,12,-657,0,2,1,3,4,5,6,10,12,11,-34,-35,-38,-44,-81,-81,-82,-84,-88,-90,0
sleep,17798,7,35.56785188,129.24564244,0.0,-0.47105917,-0.7835025,9.771336,0.0014647375,-0.0013315795,0.0002663159,21.364400914595823,40.0,582.5428315890251,611.5866984563279,462.16723801995954,227.01759276156784,190.78810655763695,134.48222714303355,127.501273829841,108.93464149516969,141.9611825188684,160.0679332395466,12,-657,0,2,1,3,4,5,6,10,12,11,-34,-35,-38,-44,-81,-81,-82,-84,-88,-90,0
sleep,17803,7,35.56785188,129.24564244,0.0,-0.47105917,-0.7835025,9.771336,0.0017310535,-0.0015978955,-0.00066578976,21.33209113411222,39.0,929.178678030202,834.8570637355162,379.3639668419007,228.17996712183515,182.0372163760821,152.5322477054296,148.75825325692858,129.37064891699148,105.58626819017304,131.01885259797183,12,-657,0,2,1,3,4,5,6,10,12,11,-34,-35,-38,-44,-81,-81,-82,-84,-88,-90,0
sleep,17808,7,35.56785188,129.24564244,0.0,-0.47105917,-0.7835025,9.771336,0.0018642114,-0.0009321057,-0.00585895,18.2339525750506,28.0,934.2954128458445,706.0197753314985,281.93475499735825,184.6587455230864,137.75582655835112,147.1086296037424,105.01015466711443,112.8297769447924,116.42354022549134,137.83769058005865,12,-657,0,2,1,3,4,5,6,10,12,11,-34,-35,-38,-44,-81,-81,-82,-84,-88,-90,0
sleep,17813,7,35.56785188,129.24564244,0.0,-0.47105917,-0.7835025,9.771336,0.0017310535,-0.0014647375,0.008522109,21.876701978628912,39.0,1700.9708409060554,711.9371015475253,451.9573827923416,351.056959547568,234.84290324284743,154.78899146973248,124.33174490923008,107.7566684656144,121.32840979428968,124.3361062289176,12,-657,0,2,1,3,4,5,6,10,12,11,-34,-35,-38,-44,-81,-81,-82,-84,-88,-90,0
sleep,17818,7,35.56785188,129.24564244,0.0,-0.47105917,-0.7835025,9.771336,0.0019973693,-0.0010652636,0.003328949,20.870198369731323,38.0,2198.705373084749,654.4012712483102,211.8326783770394,182.74809279933444,233.75584642323648,152.24885585089746,149.39531916523572,149.9915201525624,115.21593789235678,143.92172031305225,12,-657,0,2,1,3,4,5,6,10,12,11,-34,-35,-38,-44,-81,-81,-82,-84,-88,-90,0
sleep,17823,7,35.56785188,129.24564244,0.0,-0.47105917,-0.7835025,9.771336,0.0021305273,-0.0013315795,0.0021305273,21.49859755034911,50.0,1270.9751381900464,496.7490395642286,247.4700381969657,206.0664389110167,184.92837037551263,197.541919288093,190.10855424927112,131.62190401655883,180.06174200086312,250.24440482036408,12,-657,0,2,1,3,4,5,6,10,12,11,-34,-35,-38,-44,-81,-81,-82,-84,-88,-90,0
sleep,17828,7,35.56785188,129.24564244,0.0,-0.47105917,-0.7835025,9.771336,0.0018642114,-0.0014647375,0.0038615807,20.43602370245648,36.0,602.2064459453588,515.1034999937349,418.2188456820392,225.5849725590063,267.7902950473588,140.41529827739518,195.02180400570697,161.80636108641477,129.53467318058983,147.16409556780255,12,-657,0,2,1,3,4,5,6,10,12,11,-34,-35,-38,-44,-81,-81,-82,-84,-88,-90,0
sleep,17833,7,35.56785188,129.24564244,0.0,-0.47105917,-0.7835025,9.771336,0.0011984216,-0.0009321057,0.0010652636,20.134509057539574,36.0,1433.9569550038937,661.573660175222,319.02612540533426,325.6696849833616,430.6875192876398,174.49764400220144,152.96891485386064,211.875518783545,144.67630699432436,217.86394951995183,12,-657,0,2,1,3,4,5,6,10,12,11,-34,-35,-38,-44,-81,-81,-82,-84,-88,-90,0
sleep,17838,7,35.56785188,129.24564244,0.0,-0.47105917,-0.7835025,9.771336,0.0021305273,-0.0014647375,0.00039947388,18.401589743681296,29.0,895.6750212383324,583.7376079951121,327.21117461905266,192.43118890403528,154.23070855160634,159.99692674425935,116.31177974090625,123.64418717173795,139.6933860367265,191.18443721763012,12,-657,0,2,1,3,4,5,6,10,12,11,-34,-35,-38,-44,-81,-81,-82,-84,-88,-90,0
sleep,17843,7,35.56785188,129.24564244,0.0,-0.47105917,-0.7835025,9.771336,0.0018642114,-0.0018642114,-0.003195791,19.660369193001497,39.0,1117.4605677176564,812.3618565261822,388.1995942924515,234.20628866170136,186.09310211117307,115.87918195531763,150.67995153803858,127.18386029846047,138.69654408908286,147.13817560722245,12,-657,0,2,1,3,4,5,6,10,12,11,-34,-35,-38,-44,-81,-81,-82,-84,-88,-90,0
sleep,17848,7,35.56785188,129.24564244,0.0,-0.47105917,-0.7835025,9.771336,0.0022636852,-0.0013315795,0.003195791,18.42770429374775,28.0,688.3946368697539,217.03089769424872,307.2741090166894,182.10525908875223,242.3227894828024,140.63053698532494,142.44552263712717,124.9388910071478,132.62139225902746,131.540810779318,12,-657,0,2,1,3,4,5,6,10,12,11,-34,-35,-38,-44,-81,-81,-82,-84,-88,-90,0
sleep,17853,7,35.56785188,129.24564244,0.0,-0.47105917,-0.7835025,9.771336,0.0022636852,-0.0018642114,-0.0075900033,20.97704200413338,39.0,2284.6848794814628,780.467826709497,355.3140083191224,199.43259986101907,237.1279015214928,146.99686451103608,128.52947695372566,128.29796763410343,139.112243901238,184.61429822987336,12,-657,0,2,1,3,4,5,6,10,12,11,-34,-35,-38,-44,-81,-81,-82,-84,-88,-90,0
sleep,17858,7,35.56785188,129.24564244,0.0,-0.47105917,-0.7835025,9.771336,0.0009321057,-0.0019973693,0.0005326318,23.4079366900814,44.0,1456.692727638729,560.1519993965143,268.9093268046339,447.7390678225173,326.4078426571805,195.7442920292993,119.96417042513175,149.95453366050867,116.83053750900564,132.03025901126776,12,-657,0,2,1,3,4,5,6,10,12,11,-34,-35,-38,-44,-81,-81,-82,-84,-88,-90,0
sleep,17863,7,35.56785188,129.24564244,0.0,-0.47105917,-0.7835025,9.771336,0.0014647375,-0.0015978955,-0.00066578976,23.82883515623345,50.0,1069.3955184436334,583.8912234296861,297.73662761319986,157.5589005326058,128.3033939855413,105.37232992739789,128.86250197929533,125.8812675467194,110.15937196850102,146.5060107032685,12,-657,0,2,1,3,4,5,6,10,12,11,-34,-35,-38,-44,-81,-81,-82,-84,-88,-90,0
sleep,17868,7,35.56785188,129.24564244,0.0,-0.47105917,-0.7835025,9.771336,0.0017310535,-0.0014647375,-0.003462107,20.50436725706851,36.0,1126.9755128664688,481.4758960392075,248.62154238734863,231.6411714472316,283.57236865538283,144.27331221613633,181.36217150587183,159.67620330977903,138.12331232878265,163.46619115803418,12,-657,0,2,1,3,4,5,6,10,12,11,-34,-35,-38,-44,-81,-81,-82,-84,-88,-90,0
sleep,17873,7,35.56785188,129.24564244,0.0,-0.47105917,-0.7835025,9.771336,0.0023968432,-0.0022636852,0.002796317,19.136083958378883,30.0,1117.3374997135925,471.51025201931054,291.1804734024776,156.07528392030005,145.41807906980384,135.6226171145542,118.36637985772664,122.3099725728905,101.624056002741,135.2896605326973,12,-657,0,2,1,3,4,5,6,10,12,11,-34,-35,-38,-44,-81,-81,-82,-84,-88,-90,0
sleep,17878,7,35.56785188,129.24564244,0.0,-0.47105917,-0.7835025,9.771336,0.0017310535,-0.0021305273,-0.0023968432,21.49918104421255,37.0,2121.335953336536,608.682765326173,331.9710019776017,170.1596713459602,190.53955265968173,158.8861261176532,176.52013578345586,115.36255423291377,99.26602278499612,109.7431975656744,13,-653,0,2,1,3,4,5,6,10,7,11,-33,-35,-40,-47,-76,-76,-84,-87,-87,-88,0
sleep,17883,7,35.56785188,129.24564244,0.0,-0.47105917,-0.7835025,9.771336,0.002796317,-0.0017310535,-0.0018642114,21.943733987803192,41.0,1149.7275475677486,559.4482534449251,262.36495071052514,652.0541339401672,249.8011154236892,255.5951883182358,130.8343194920341,101.96342954682858,135.54698396511412,127.84423006233624,13,-653,0,2,1,3,4,5,6,10,7,11,-33,-35,-40,-47,-76,-76,-84,-87,-87,-88,0
sleep,17888,7,35.56785188,129.24564244,0.0,-0.47105917,-0.7835025,9.771336,0.0023968432,-0.0014647375,-0.0021305273,19.341291304179865,36.0,1331.225958267432,559.226543327813,270.70302489100743,519.5140964461491,216.4374220778144,189.3248786391852,180.15814989181504,145.73203090452984,147.25788710259286,142.67582123308662,11,-650,0,2,1,3,4,5,6,8,13,11,-32,-35,-39,-47,-75,-80,-82,-84,-88,-88,0
sleep,17893,7,35.56785188,129.24564244,0.0,-0.47105917,-0.7835025,9.771336,0.0017310535,-0.0013315795,0.0019973693,19.94730942499396,35.0,1675.823601690316,428.4079321778957,443.59848218235294,254.5518871407119,148.81831361629406,139.03130742803145,147.33585495637186,145.7563297138591,134.59956893816047,138.120695872276,11,-650,0,2,1,3,4,5,6,8,13,11,-32,-35,-39,-47,-75,-80,-82,-84,-88,-88,0
sleep,17899,7,35.56785188,129.24564244,0.0,-0.47105917,-0.7835025,9.771336,0.0022636852,-0.00066578976,0.0013315795,19.84307508659573,37.0,670.5186811437911,651.2549665662598,265.9901384045486,215.21859314262585,165.3673578276381,147.6642793928452,121.67785497443614,124.05649895520668,120.59899070303624,125.50050806300592,11,-650,0,2,1,3,4,5,6,8,13,11,-32,-35,-39,-47,-75,-80,-82,-84,-88,-88,0
sleep,17904,7,35.56785188,129.24564244,0.0,-0.47105917,-0.7835025,9.771336,0.0021305273,-0.0013315795,-0.0023968432,19.93459603903133,38.0,2154.186679782768,1081.157958225279,271.88519827696064,288.2266863127571,228.4585121460244,124.02145671501876,145.68469502289798,153.29117667693075,135.01353099386856,118.47223862394252,11,-650,0,2,1,3,4,5,6,8,13,11,-32,-35,-39,-47,-75,-80,-82,-84,-88,-88,0
sleep,17909,7,35.56785188,129.24564244,0.0,-0.47105917,-0.7835025,9.771336,0.0015978955,-0.0017310535,-0.0042610546,20.41485209637197,32.0,1375.8648193903402,493.74960767599134,283.30312247528974,213.57422317209517,158.4252022904192,145.61163438944254,142.14451088417383,117.88131617185584,118.6231666983851,144.5010315248659,11,-650,0,2,1,3,4,5,6,8,13,11,-32,-35,-39,-47,-75,-80,-82,-84,-88,-88,0
sleep,17914,7,35.56785188,129.24564244,0.0,-0.47105917,-0.7835025,9.771336,0.0022636852,-0.0013315795,-0.0015978955,25.033711130175984,57.0,2092.935798532224,554.0003209986892,404.458102142661,225.5465666905424,194.95418030841705,193.85768252466585,198.68147537039144,170.2696950712137,172.0803204565356,236.9338570652996,11,-650,0,2,1,3,4,5,6,8,13,11,-32,-35,-39,-47,-75,-80,-82,-84,-88,-88,0
sleep,17919,7,35.56785188,129.24564244,0.0,-0.47105917,-0.7835025,9.771336,0.0014647375,-0.0019973693,0.0054594763,20.435826416437443,36.0,1482.3802473030476,583.9457647679011,306.8701167263421,232.65530337348,156.78026996642816,159.86862669964646,106.08675446995026,152.5793418472512,118.49201949707488,138.04775895279238,11,-650,0,2,1,3,4,5,6,8,13,11,-32,-35,-39,-47,-75,-80,-82,-84,-88,-88,0
sleep,17924,7,35.56785188,129.24564244,0.0,-0.47105917,-0.7835025,9.771336,0.002796317,-0.0018642114,-0.0087884255,19.820565976594253,34.0,1058.1546523227978,442.1028255280239,454.5540323238636,267.2090602292162,242.1906605307844,130.35636351893118,139.75869467073483,147.26907446605554,110.71902530757193,143.9833812472079,11,-650,0,2,1,3,4,5,6,8,13,11,-32,-35,-39,-47,-75,-80,-82,-84,-88,-88,0
sleep,17929,7,35.56785188,129.24564244,0.0,-0.47105917,-0.7835025,9.771336,0.0023968432,-0.0018642114,-0.0061252657,19.69443475099632,29.0,1852.1339934595287,824.4920774233111,441.3004747700045,219.0974892676184,193.29689049279543,139.81607939777496,134.97645217856777,127.72669321136078,134.53519356661735,135.9672041734244,11,-650,0,2,1,3,4,5,6,8,13,11,-32,-35,-39,-47,-75,-80,-82,-84,-88,-88,0
sleep,17934,7,35.56785188,129.24564244,0.0,-0.47105917,-0.7835025,9.771336,0.0019973693,-0.0015978955,-0.0018642114,22.798485426637104,56.0,1024.755597549087,413.2817693009205,234.51657513479944,272.0216384732077,173.3903488228876,169.79294365477267,169.7202463785489,186.48437678393623,210.21814435005152,400.2190966027785,11,-650,0,2,1,3,4,5,6,8,13,11,-32,-35,-39,-47,-75,-80,-82,-84,-88,-88,0
sleep,17939,7,35.56785188,129.24564244,0.0,-0.47105917,-0.7835025,9.771336,0.0018642114,-0.0018642114,0.0009321057,18.79603337210771,30.0,967.4302892764216,499.9540054117716,433.8921882524923,267.90799327659187,130.1431761128474,111.69959462296336,136.66530495929692,160.93484150054812,270.7100692757492,265.27669839691845,11,-650,0,2,1,3,4,5,6,8,13,11,-32,-35,-39,-47,-75,-80,-82,-84,-88,-88,0
sleep,17944,7,35.56785188,129.24564244,0.0,-0.47105917,-0.7835025,9.771336,0.0014647375,-0.0015978955,0.0035952649,20.214246627747077,38.0,1988.5888139030883,450.5799243896863,303.6453666620558,170.70029744333723,231.522657183874,162.3319818164373,139.99843347026226,156.09924474211485,157.9391833353584,203.49556701719604,11,-650,0,2,1,3,4,5,6,8,13,11,-32,-35,-39,-47,-75,-80,-82,-84,-88,-88,0
sleep,17949,7,35.56785188,129.24564244,0.0,-0.47105917,-0.7835025,9.771336,0.0022636852,-0.0014647375,-0.003328949,25.622038823402495,62.0,1427.1830824600272,605.3230914824597,359.6595201833618,250.78030891508828,213.58166674248807,159.25859188016616,202.30050973713955,162.35799297111163,191.0350128288888,339.7384481123295,11,-650,0,2,1,3,4,5,6,8,13,11,-32,-35,-39,-47,-75,-80,-82,-84,-88,-88,0
sleep,17954,7,35.56785188,129.24564244,0.0,-0.47105917,-0.7835025,9.771336,0.0018642114,-0.0014647375,0.0071905297,19.453328249071237,30.0,986.7891788670944,637.8532714103559,355.76111036614054,206.56096866165169,227.2892344425604,123.10693025326349,184.02364162831088,132.2009766416589,134.5232147044678,164.19419747411894,11,-650,0,2,1,3,4,5,6,8,13,11,-32,-35,-39,-47,-75,-80,-82,-84,-88,-88,0
sleep,17959,7,35.56785188,129.24564244,0.0,-0.47105917,-0.7835025,9.771336,0.002530001,-0.0015978955,-0.0010652636,19.57932082696503,41.0,957.6684097633802,472.0806373666257,544.0814936465542,190.9703780271316,162.72189714515116,143.8726034484631,180.67441179372872,170.05070661792513,128.09278890354457,131.56741336385537,11,-650,0,2,1,3,4,5,6,8,13,11,-32,-35,-39,-47,-75,-80,-82,-84,-88,-88,0
sleep,17964,7,35.56785188,129.24564244,0.0,-0.47105917,-0.7835025,9.771336,0.0021305273,-0.0018642114,0.0022636852,21.249663032542152,32.0,1551.4772670275686,696.6089920047987,311.4617954750272,251.3049916926352,183.5761143487547,152.11397006146143,112.11651761313554,116.53090736261066,141.27892747989952,131.47771412362047,11,-650,0,2,1,3,4,5,6,8,13,11,-32,-35,-39,-47,-75,-80,-82,-84,-88,-88,0
sleep,17969,7,35.56785188,129.24564244,0.0,-0.47105917,-0.7835025,9.771336,0.0021305273,-0.0021305273,0.002663159,19.609573321084657,35.0,1239.8803297238792,631.2888262102215,323.2847812937782,207.77539711971195,162.55207204426586,148.76762737327306,131.36745308801378,123.93190204752834,127.39170999332204,131.53085175691044,11,-650,0,2,1,3,4,5,6,8,13,11,-32,-35,-39,-47,-75,-80,-82,-84,-88,-88,0
sleep,17974,7,35.56785188,129.24564244,0.0,-0.47105917,-0.7835025,9.771336,0.0017310535,-0.0015978955,-0.0011984216,20.99305585197571,32.0,665.7543200648976,395.7964404926456,335.6407499180868,186.94048245330197,125.50603786727548,108.05083612895017,170.6963854971651,128.60405705219844,116.54363293844564,131.63361166978635,11,-650,0,2,1,3,4,5,6,8,13,11,-32,-35,-39,-47,-75,-80,-82,-84,-88,-88,0
sleep,17979,7,35.56785188,129.24564244,0.0,-0.47105917,-0.7835025,9.771336,0.0018642114,-0.0022636852,0.00039947388,21.830306043534037,46.0,1949.6053266492356,1455.7656349249455,748.9596517306943,309.72209744200006,230.47896650110383,198.2513521864689,156.2035301560975,180.60554348921727,218.9302677062696,341.9310470051016,11,-650,0,2,1,3,4,5,6,8,13,11,-32,-35,-39,-47,-75,-80,-82,-84,-88,-88,0
sleep,17984,7,35.56785188,129.24564244,0.0,-0.47105917,-0.7835025,9.771336,0.0017310535,-0.0019973693,0.005326318,19.167652223563422,30.0,916.5328439916163,475.56632662714736,310.89447549807704,221.0786706702033,118.839455471688,163.41174369260125,145.01357968545827,140.8296050653659,138.26287375970335,139.93437605500688,11,-650,0,2,1,3,4,5,6,8,13,11,-32,-35,-39,-47,-75,-80,-82,-84,-88,-88,0
sleep,17989,7,35.56785188,129.24564244,0.0,-0.47105917,-0.7835025,9.771336,0.0014647375,-0.0023968432,0.006924214,20.68065704901593,46.0,1326.045802708145,672.5569581911732,359.81650464510005,291.00124832465457,185.2377064264699,170.76029963703198,175.61523939980333,125.66928654477218,113.36782746905716,137.54561398174914,11,-650,0,2,1,3,4,5,6,8,13,11,-32,-35,-39,-47,-75,-80,-82,-84,-88,-88,0
sleep,17994,7,35.56785188,129.24564244,0.0,-0.47105917,-0.7835025,9.771336,0.0015978955,-0.0021305273,0.0035952649,18.705462881339013,30.0,567.346062628825,603.5382635713602,273.2302154067796,254.10277202696903,221.4562948329205,174.79630230205564,122.1957446136013,120.6064933591572,114.74544475206866,128.32973345066995,11,-650,0,2,1,3,4,5,6,8,13,11,-32,-35,-39,-47,-75,-80,-82,-84,-88,-88,0
sleep,17999,7,35.56785188,129.24564244,0.0,-0.47105917,-0.7835025,9.771336,0.0015978955,-0.0023968432,0.002796317,21.109014619763947,38.0,1248.213737171623,535.1314197397394,226.607626719309,338.57642700633795,152.56538389292504,121.99765499919889,103.43278520883946,109.74418739738756,132.90058002416106,124.06955231064396,13,-645,0,2,1,3,4,5,8,6,10,7,-34,-35,-39,-48,-75,-77,-83,-83,-84,-87,0
sleep,18004,7,35.56785188,129.24564244,0.0,-0.47105917,-0.7835025,9.771336,0.0023968432,-0.0018642114,-0.0035952649,18.710455653938,30.0,1174.8642479208827,697.7134678904276,492.3905699397766,295.86653161777133,321.97578329673337,181.091909143948,143.8739123565438,126.95409087823984,147.21816774344538,190.03267442143985,13,-645,0,2,1,3,4,5,8,6,10,7,-34,-35,-39,-48,-75,-77,-83,-83,-84,-87,0
sleep,18009,7,35.56785188,129.24564244,0.0,-0.47105917,-0.7835025,9.771336,0.0018642114,-0.0018642114,-0.0087884255,19.55347841672959,39.0,1394.5590266437844,1054.38950765826,319.8204010632851,331.66442566451343,212.159758945104,148.9132370829807,182.1469049329137,145.96064260160114,161.184557513657,254.00564007249903,9,-561,0,2,1,3,4,5,6,8,11,7,-33,-34,-37,-47,-75,-80,-83,-83,-89,-87,0
sleep,18014,7,35.56785188,129.24564244,0.0,-0.47105917,-0.7835025,9.771336,0.0022636852,-0.0018642114,0.0037284228,19.682639949410778,32.0,234.3336257483162,650.5415701271711,335.52820975676855,243.23428577247785,190.3121522114658,148.57395170687738,107.02008846380272,125.09645578481914,106.3985127517144,148.67571215090268,9,-561,0,2,1,3,4,5,6,8,11,7,-33,-34,-37,-47,-75,-80,-83,-83,-89,-87,0
sleep,18019,7,35.56785188,129.24564244,0.0,-0.47105917,-0.7835025,9.771336,0.0022636852,-0.0017310535,0.0046605286,19.74224785004393,32.0,1636.2965134020108,455.6374016843617,254.13902357202687,225.9054558088185,235.64289306409785,162.53147555114768,151.62370741429058,147.40714929973103,132.85401859227588,125.62359821075285,9,-561,0,2,1,3,4,5,6,8,11,7,-33,-34,-37,-47,-75,-80,-83,-83,-89,-87,0
sleep,18024,7,35.56785188,129.24564244,0.0,-0.47105917,-0.7835025,9.771336,0.0023968432,-0.0013315795,-0.0010652636,19.03799800420045,32.0,1230.1270347677082,741.3662051135702,234.8876999975189,201.4632602518731,358.3341138251599,168.27417548691372,155.33496883708946,198.2872868568329,126.91073388648164,144.27677971912317,9,-561,0,2,1,3,4,5,6,8,11,7,-33,-34,-37,-47,-75,-80,-83,-83,-89,-87,0
sleep,18029,7,35.56785188,129.24564244,0.0,-0.47105917,-0.7835025,9.771336,0.0021305273,-0.0017310535,-0.00013315796,18.837216229409176,32.0,720.4441771470237,534.0732897848502,380.0346909832408,311.5311351166687,380.9264979391265,151.27509655412769,154.6260715389494,157.88026402143095,113.34066626528512,131.43329514589547,9,-561,0,2,1,3,4,5,6,8,11,7,-33,-34,-37,-47,-75,-80,-83,-83,-89,-87,0
sleep,18035,7,35.56785188,129.24564244,0.0,-0.47105917,-0.7835025,9.771336,0.0015978955,-0.0022636852,0.002929475,19.63329224222103,37.0,1240.4004088431702,267.48933714218526,334.2018737692442,256.405950095168,199.60597143882916,136.22874617189584,221.3182853887792,174.59731716135855,254.22080895185604,196.35949924333545,9,-561,0,2,1,3,4,5,6,8,11,7,-33,-34,-37,-47,-75,-80,-83,-83,-89,-87,0
sleep,18040,7,35.56785188,129.24564244,0.0,-0.47105917,-0.7835025,9.771336,0.0019973693,-0.0017310535,-0.00079894776,21.39579555688677,45.0,1094.1326150863615,430.6120297065421,320.78526527837454,235.19300709970557,212.56232587997496,153.6469165936552,181.6854432753368,180.99821561391656,234.6712781944778,347.6736836075624,9,-561,0,2,1,3,4,5,6,8,11,7,-33,-34,-37,-47,-75,-80,-83,-83,-89,-87,0
sleep,18045,7,35.56785188,129.24564244,0.0,-0.47105917,-0.7835025,9.771336,0.0019973693,-0.0017310535,0.003462107,23.767347625588123,62.0,2413.1879491816035,642.4468487132425,384.5590063995559,271.52587669601803,264.3739183905622,192.6256179774357,197.4649728942666,261.5242477219745,276.23121617555176,365.4306928242858,9,-561,0,2,1,3,4,5,6,8,11,7,-33,-34,-37,-47,-75,-80,-83,-83,-89,-87,0
sleep,18050,7,35.56785188,129.24564244,0.0,-0.47105917,-0.7835025,9.771336,0.0018642114,-0.0018642114,0.002796317,21.05187879826849,39.0,1468.965219128911,532.4327795773889,306.8524744845893,186.7671747354458,154.5577291107875,119.64703634033322,142.91976984980835,129.49007095107717,129.6515139114403,257.93719063577663,9,-561,0,2,1,3,4,5,6,8,11,7,-33,-34,-37,-47,-75,-80,-83,-83,-89,-87,0
sleep,18055,7,35.56785188,129.24564244,0.0,-0.47105917,-0.7835025,9.771336,0.0021305273,-0.0019973693,0.0011984216,20.978647983260664,38.0,1258.5723737948974,965.9241787443652,539.4799634715653,237.5185347072757,168.5143092774086,143.08585672701392,153.11386273334577,147.89348188792349,149.31574957556515,215.241480925617,9,-561,0,2,1,3,4,5,6,8,11,7,-33,-34,-37,-47,-75,-80,-83,-83,-89,-87,0
sleep,18060,7,35.56785188,129.24564244,0.0,-0.47105917,-0.7835025,9.771336,0.0018642114,-0.0019973693,0.0019973693,21.453396771199643,35.0,2220.527661956472,441.1696404932309,402.3817596498475,216.39791194749068,182.4802702675463,158.3565687287297,152.5683686767969,133.14359511513777,151.23762632374934,125.2464774595144,9,-561,0,2,1,3,4,5,6,8,11,7,-33,-34,-37,-47,-75,-80,-83,-83,-89,-87,0
sleep,18065,7,35.56785188,129.24564244,0.0,-0.47105917,-0.7835025,9.771336,0.0023968432,-0.0015978955,0.0013315795,18.90167052163288,32.0,1422.0964510664303,507.5878153958115,261.95249121540866,239.5895197636412,218.43558859144355,182.66201811695248,164.63823345092823,115.64262346644774,119.4198533118772,159.3773496082378,9,-561,0,2,1,3,4,5,6,8,11,7,-33,-34,-37,-47,-75,-80,-83,-83,-89,-87,0
sleep,18070,7,35.56785188,129.24564244,0.0,-0.47105917,-0.7835025,9.771336,0.0018642114,-0.0018642114,0.0017310535,22.163257219559927,61.0,1061.501154570557,536.7037623693265,297.9364823410563,227.7218128087078,174.2249760749471,191.0024571821025,188.47761883344575,509.8187252884792,315.1196362281972,536.1069633569315,9,-561,0,2,1,3,4,5,6,8,11,7,-33,-34,-37,-47,-75,-80,-83,-83,-89,-87,0
sleep,18075,7,35.56785188,129.24564244,0.0,-0.47105917,-0.7835025,9.771336,0.0019973693,-0.0019973693,0.00013315796,22.34327710583206,53.0,1169.6631351651336,916.2644663530108,487.6325166822644,235.1556621523035,178.52572693622395,212.6972861007009,189.74157493067509,176.21171344536924,247.367004703446,353.83393958551505,9,-561,0,2,1,3,4,5,6,8,11,7,-33,-34,-37,-47,-75,-80,-83,-83,-89,-87,0
sleep,18080,7,35.56785188,129.24564244,0.0,-0.47105917,-0.7835025,9.771336,0.0018642114,-0.0022636852,0.003462107,20.76551863473524,35.0,942.662164731769,451.1654185508213,270.2210434556803,134.6944463493359,164.45432657838873,141.80980706524971,151.1881175876169,150.68190159468352,157.5864416201102,165.41666242155586,9,-561,0,2,1,3,4,5,6,8,11,7,-33,-34,-37,-47,-75,-80,-83,-83,-89,-87,0
sleep,18085,7,35.56785188,129.24564244,0.0,-0.47105917,-0.7835025,9.771336,0.0022636852,-0.0015978955,-0.0010652636,19.13386571046788,34.0,1407.2781344983734,844.0859186301844,321.10391366402496,301.67888071381606,168.19412740017177,190.7039840104491,148.64244612960778,114.3983290315408,158.61547397876666,237.47311290782127,9,-561,0,2,1,3,4,5,6,8,11,7,-33,-34,-37,-47,-75,-80,-83,-83,-89,-87,0
sleep,18090,7,35.56785188,129.24564244,0.0,-0.47105917,-0.7835025,9.771336,0.0022636852,-0.0022636852,-0.0002663159,22.12326599927224,51.0,938.8597385655936,453.7555947687596,309.9798496208822,159.03250134421094,179.3040198746273,168.3424079345129,126.11283231903074,100.7347590214047,191.21550478203773,321.9023532819888,9,-561,0,2,1,3,4,5,6,8,11,7,-33,-34,-37,-47,-75,-80,-83,-83,-89,-87,0
sleep,18095,7,35.56785188,129.24564244,0.0,-0.47105917,-0.7835025,9.771336,0.0017310535,-0.0018642114,0.003462107,19.24331215492411,30.0,1255.5199062583106,406.0120929030316,444.6403916957981,234.38844078697105,187.8418773272432,160.77617193546848,194.48801597651308,152.59593698778255,114.47910025793576,146.76309294330272,9,-561,0,2,1,3,4,5,6,8,11,7,-33,-34,-37,-47,-75,-80,-83,-83,-89,-87,0
sleep,18100,7,35.56785188,129.24564244,0.0,-0.47105917,-0.7835025,9.771336,0.0022636852,-0.0019973693,0.00013315796,23.833805173809644,45.0,927.785016359952,467.5353554625743,433.34227202862814,214.8817872676276,175.09430351298067,170.01668070269577,142.7963974375143,123.74340731843576,126.49736061501284,144.50443772211668,9,-561,0,2,1,3,4,5,6,8,11,7,-33,-34,-37,-47,-75,-80,-83,-83,-89,-87,0
sleep,18105,7,35.56785188,129.24564244,0.0,-0.47105917,-0.7835025,9.771336,0.0023968432,-0.0015978955,-0.005326318,22.81046055639934,48.0,1590.3617111768544,576.4016644514865,316.4582400042068,258.1008910071258,223.7131941270758,191.9394627642215,177.58807379390188,315.9394930061088,137.5831191222625,226.80691939299595,9,-561,0,2,1,3,4,5,6,8,11,7,-33,-34,-37,-47,-75,-80,-83,-83,-89,-87,0
sleep,18110,7,35.56785188,129.24564244,0.0,-0.47105917,-0.7835025,9.771336,0.0021305273,-0.0019973693,0.003328949,25.77097639011684,66.0,2261.3478734359296,1230.956022741377,379.0898042034126,245.5566436976868,200.39483277493227,169.752320149389,162.42334174219766,215.12528764339837,159.38434607781323,408.4107756513319,9,-561,0,2,1,3,4,5,6,8,11,7,-33,-34,-37,-47,-75,-80,-83,-83,-89,-87,0
sleep,18115,7,35.56785188,129.24564244,0.0,-0.47105917,-0.7835025,9.771336,0.0017310535,-0.0021305273,0.00013315796,21.2987305573266,43.0,1148.7440095837703,704.0083448969792,427.4433193280066,219.8768849401296,216.913524886871,148.9171119223402,133.68997809858047,145.0651906982599,148.7276346209465,251.21986249311936,9,-561,0,2,1,3,4,5,6,8,11,7,-33,-34,-37,-47,-75,-80,-83,-83,-89,-87,0
sleep,18120,7,35.56785188,129.24564244,0.0,-0.47105917,-0.7691373,9.771336,0.002530001,-0.0022636852,0.0018642114,20.00837728851785,35.0,1526.155946238454,387.5074026630152,237.13933322394175,253.8762773723414,211.80252652324555,122.85617862632904,117.07025765987692,121.58771773493602,116.17902501131093,118.20605829456514,8,-494,0,2,1,3,4,6,11,16,11,7,-34,-34,-40,-48,-75,-83,-88,-92,-89,-87,0
sleep,18125,7,35.56785188,129.24564244,0.0,-0.47105917,-0.7691373,9.771336,0.0011984216,-0.002663159,0.0075900033,20.27335953935821,38.0,1925.9246542913772,512.8888290316363,236.3891488330968,310.152780448146,176.08695387084308,201.6536598477728,320.4307518608037,201.55972240331664,183.7454218660188,187.25470708143592,8,-494,0,2,1,3,4,6,11,16,11,7,-34,-34,-40,-48,-75,-83,-88,-92,-89,-87,0
sleep,18130,7,35.56785188,129.24564244,0.0,-0.47105917,-0.7691373,9.771336,0.0021305273,-0.0010652636,0.002530001,18.797951591621253,32.0,789.14160910306,624.4401969408785,280.5773204667238,237.73295770775175,159.530972032072,153.0466256030367,148.61522903125632,127.09364332151098,116.68444998654584,139.10713060781032,12,-650,0,2,1,3,4,5,6,8,10,11,-34,-34,-40,-48,-74,-80,-83,-85,-85,-87,0
sleep,18135,7,35.56785188,129.24564244,0.0,-0.47105917,-0.7691373,9.771336,0.0021305273,-0.0018642114,0.002663159,20.121767257202706,39.0,1482.6719018730282,443.3235270867507,305.5859325915963,177.60093418817974,157.6732472516471,151.9141973276497,142.47714994358347,118.92375532234892,135.84823428272682,120.1607179135235,12,-650,0,2,1,3,4,5,6,8,10,11,-34,-34,-40,-48,-74,-80,-83,-85,-85,-87,0
sleep,18140,7,35.56785188,129.24564244,0.0,-0.47105917,-0.7691373,9.771336,0.0018642114,-0.0019973693,0.00066578976,19.99960010106735,37.0,1679.9985304159109,739.1820531362498,476.5201844441956,256.4179518424757,184.0281324079201,169.73813137115334,146.9994723107251,127.26204889092986,133.4117149850522,141.3955958306597,12,-650,0,2,1,3,4,5,6,8,10,11,-34,-34,-40,-48,-74,-80,-83,-85,-85,-87,0
sleep,18145,7,35.56785188,129.24564244,0.0,-0.47105917,-0.7691373,9.771336,0.0021305273,-0.0019973693,-0.0071905297,21.07410620899021,39.0,1416.5660808189848,700.1696867770412,241.15420642619887,195.33831751110517,186.3786952177832,159.6513320228867,161.06788170638654,108.77113304377067,116.92676274874864,143.57289968122055,12,-650,0,2,1,3,4,5,6,8,10,11,-34,-34,-40,-48,-74,-80,-83,-85,-85,-87,0
sleep,18150,7,35.56785188,129.24564244,0.0,-0.47105917,-0.7691373,9.771336,0.0023968432,-0.0019973693,-0.005592634,21.53843775530502,39.0,1690.1943700155866,509.6251665723539,419.267420436381,217.98049762146405,233.3499484072776,130.4437384551241,159.5804665811513,108.78472917868848,130.21011416111423,185.4499843194787,12,-650,0,2,1,3,4,5,6,8,10,11,-34,-34,-40,-48,-74,-80,-83,-85,-85,-87,0
sleep,18155,7,35.56785188,129.24564244,0.0,-0.47105917,-0.7691373,9.771336,0.0019973693,-0.0018642114,0.0074568456,20.23703619855428,39.0,486.4287335186409,1187.162330181051,278.1435467434825,176.22062545336573,220.32765422053524,194.7586512142896,143.11110840352814,144.73495806340208,124.0873194938267,126.50298997994751,12,-650,0,2,1,3,4,5,6,8,10,11,-34,-34,-40,-48,-74,-80,-83,-85,-85,-87,0
sleep,18160,7,35.56785188,129.24564244,0.0,-0.47105917,-0.7691373,9.771336,0.002530001,-0.0022636852,0.0051931604,19.20810513911937,30.0,1339.4706239749903,465.427874132945,307.2557953414633,262.2946482521984,166.83674451722524,115.3956200704243,155.94964338323803,143.0449990674047,127.71999373314146,134.68746906808008,12,-650,0,2,1,3,4,5,6,8,10,11,-34,-34,-40,-48,-74,-80,-83,-85,-85,-87,0
sleep,18166,7,35.56785188,129.24564244,0.0,-0.47105917,-0.7691373,9.771336,0.0021305273,-0.0014647375,-0.006924214,21.239445629308324,39.0,1652.6449548446344,789.7982599101854,253.65490866387069,189.08990343781844,165.94916255949553,200.5041402189572,169.3804696548491,215.71414974148084,189.07021333743216,210.9829161817816,12,-650,0,2,1,3,4,5,6,8,10,11,-34,-34,-40,-48,-74,-80,-83,-85,-85,-87,0
sleep,18171,7,35.56785188,129.24564244,0.0,-0.47105917,-0.7691373,9.771336,0.0018642114,-0.0014647375,-0.0018642114,21.514794676925103,39.0,2354.891502710131,638.5841417557106,264.51132233050504,266.50770795650493,237.93253730164147,137.458246867638,126.82899304560203,153.27810422813334,130.0080710956353,153.88524360217318,12,-650,0,2,1,3,4,5,6,8,10,11,-34,-34,-40,-48,-74,-80,-83,-85,-85,-87,0
sleep,18176,7,35.56785188,129.24564244,0.0,-0.47105917,-0.7691373,9.771336,0.0018642114,-0.0019973693,0.0030626329,22.14364051592292,50.0,1647.8349231661057,430.4651123092384,223.27547629790575,236.78359754374912,179.69475733142198,158.95619162946076,196.6964040758207,138.10069162737852,190.81064054385985,322.740056251212,12,-650,0,2,1,3,4,5,6,8,10,11,-34,-34,-40,-48,-74,-80,-83,-85,-85,-87,0
sleep,18181,7,35.56785188,129.24564244,0.0,-0.47105917,-0.7691373,9.771336,0.002796317,-0.0013315795,0.0014647375,18.854082362662517,32.0,946.4446105952752,563.6283195582682,360.1897278362184,222.9797862062484,188.36609684659916,152.01646159292645,148.72274350169738,119.04160751665708,146.25997088685813,139.69924133375736,12,-650,0,2,1,3,4,5,6,8,10,11,-34,-34,-40,-48,-74,-80,-83,-85,-85,-87,0
sleep,18186,7,35.56785188,129.24564244,0.0,-0.47105917,-0.7691373,9.771336,0.002929475,-0.0023968432,-0.005992108,19.70362963526939,30.0,2039.3966006648,493.016084578638,230.0445830053048,236.65594040118245,208.98581972484016,132.8693878280606,123.43365334252124,138.76410833651738,139.0977175707956,209.0507690353008,12,-650,0,2,1,3,4,5,6,8,10,11,-34,-34,-40,-48,-74,-80,-83,-85,-85,-87,0
sleep,18191,7,35.56785188,129.24564244,0.0,-0.47105917,-0.7691373,9.771336,0.0023968432,-0.0019973693,-0.0019973693,20.217152301808454,36.0,2689.6385985734,661.3587385863947,215.89263808075964,196.69941703178608,180.59042327084688,176.68058292349218,153.32642452029123,118.50693455240707,146.54525062933277,162.95347024792835,12,-650,0,2,1,3,4,5,6,8,10,11,-34,-34,-40,-48,-74,-80,-83,-85,-85,-87,0
sleep,18196,7,35.56785188,129.24564244,0.0,-0.47105917,-0.7691373,9.771336,0.002530001,-0.0017310535,-0.002530001,19.83846185235105,36.0,848.6086156143351,562.3802087829192,314.84616059767075,215.46415240780135,156.4707735727203,172.51024390770252,162.23647703915137,128.0850067014136,103.40470817412816,142.58616694556267,12,-650,0,2,1,3,4,5,6,8,10,11,-34,-34,-40,-48,-74,-80,-83,-85,-85,-87,0
sleep,18201,7,35.56785188,129.24564244,0.0,-0.47105917,-0.7691373,9.771336,0.0021305273,-0.0013315795,-0.00079894776,19.760647956957143,36.0,973.1181180779956,586.6168196965133,280.6769158806662,235.98029060183327,184.8815611753824,157.96880111970472,142.8317925265729,161.7565319111297,134.14741981675303,152.92588717575055,12,-650,0,2,1,3,4,5,6,8,10,11,-34,-34,-40,-48,-74,-80,-83,-85,-85,-87,0
sleep,18206,7,35.56785188,129.24564244,0.0,-0.47105917,-0.7691373,9.771336,0.0018642114,-0.0019973693,0.0005326318,22.165664451703385,39.0,1672.6072356939696,473.2837929715999,217.0156278464368,275.602158937048,154.2930064421362,137.60256992386573,136.23205645498365,172.46534916261874,142.41978360432503,267.60168164736183,12,-650,0,2,1,3,4,5,6,8,10,11,-34,-34,-40,-48,-74,-80,-83,-85,-85,-87,0
sleep,18211,7,35.56785188,129.24564244,0.0,-0.47105917,-0.7691373,9.771336,0.002663159,-0.0018642114,0.002663159,18.539873084750504,27.0,1278.2439054871722,578.1810482062444,303.97591858137184,194.9412059989891,155.87879199275187,140.16419409541294,135.3891771569105,128.85270842477277,131.5860073257937,126.43339948210298,12,-650,0,2,1,3,4,5,6,8,10,11,-34,-34,-40,-48,-74,-80,-83,-85,-85,-87,0
sleep,18216,7,35.56785188,129.24564244,0.0,-0.47105917,-0.7691373,9.771336,0.0023968432,-0.0014647375,-0.0005326318,20.613822082012973,36.0,1848.821621315948,564.0692652840708,435.4755335249,281.57486630756125,244.03713100308903,169.93485241535413,156.5793055384593,123.82206699372176,131.22889660052064,136.69361080504518,12,-650,0,2,1,3,4,5,6,8,10,11,-34,-34,-40,-48,-74,-80,-83,-85,-85,-87,0
sleep,18221,7,35.56785188,129.24564244,0.0,-0.47105917,-0.7691373,9.771336,0.0018642114,-0.0019973693,0.0009321057,20.02245632679919,32.0,2351.887142800043,598.3092787289095,301.260302098844,195.0972913424904,202.0997025896784,167.35861900152622,150.863545849209,144.0686112077349,129.68778006020753,178.17096608438604,12,-650,0,2,1,3,4,5,6,8,10,11,-34,-34,-40,-48,-74,-80,-83,-85,-85,-87,0
sleep,18226,7,35.56785188,129.24564244,0.0,-0.47105917,-0.7691373,9.771336,0.0019973693,-0.0019973693,0.0015978955,22.81863041640928,49.0,1077.9708908893176,380.1777295229084,329.5235631944864,290.22673845812955,220.52904354493683,160.1193915180193,234.1730983004128,213.5066968327588,196.8138015555577,244.50498025923244,12,-650,0,2,1,3,4,5,6,8,10,11,-34,-34,-40,-48,-74,-80,-83,-85,-85,-87,0
sleep,18231,7,35.56785188,129.24564244,0.0,-0.47105917,-0.7691373,9.771336,0.0021305273,-0.0023968432,-0.0002663159,18.638238741209094,30.0,803.8480012594123,998.976242257646,345.0234606432888,254.80444920479687,174.2181764462007,141.66259336944705,115.75351113745153,131.7325188862752,131.30458363901852,133.19620102468593,12,-650,0,2,1,3,4,5,6,8,10,11,-34,-34,-40,-48,-74,-80,-83,-85,-85,-87,0
sleep,18236,7,35.56785188,129.24564244,0.0,-0.47105917,-0.7691373,9.771336,0.0023968432,-0.0017310535,-0.0009321057,19.03253543676301,30.0,1396.1518655460784,828.4464864053277,330.9888204765704,275.13874706518766,159.7419175616984,158.3106960572478,136.65508092033747,117.39052700860296,128.96843892096612,124.61566900442322,12,-650,0,2,1,3,4,5,6,8,10,11,-34,-34,-40,-48,-74,-80,-83,-85,-85,-87,0
sleep,18241,7,35.56785188,129.24564244,0.0,-0.4758476,-0.7691373,9.776124,0.0021305273,-0.0017310535,-0.0011984216,19.797812646911503,35.0,2427.022465783796,822.4956247531097,340.434193731983,218.0546787936836,141.96670412001671,157.85948321007385,133.18255813483614,115.61699741804604,113.34389418812492,129.81784586939932,13,-649,2,0,1,3,4,5,10,6,7,11,-34,-35,-38,-46,-77,-79,-84,-84,-85,-87,0
sleep,18246,7,35.56785188,129.24564244,0.0,-0.4758476,-0.7691373,9.776124,0.002530001,-0.0011984216,-0.00039947388,26.095804157122146,57.0,3071.9840225736725,2140.4016227329903,671.996603229814,267.8352675822285,242.4261396450482,188.2788629441412,206.5244961800485,142.96443188645327,134.38830920746778,156.25986327864962,10,-650,0,2,1,3,5,4,6,10,11,8,-33,-34,-40,-46,-78,-80,-83,-84,-86,-86,0
sleep,18251,7,35.56785188,129.24564244,0.0,-0.4758476,-0.7691373,9.776124,0.002663159,-0.0023968432,-0.0049268445,19.467405789363283,34.0,1419.228140066664,636.368832555651,337.2031829666337,150.50087718380075,195.87921067859384,183.4997404617297,131.81261889117263,136.3121910260488,111.76103842355865,125.46531145095524,10,-650,0,2,1,3,5,4,6,10,11,8,-33,-34,-40,-46,-78,-80,-83,-84,-86,-86,0
sleep,18256,7,35.56785188,129.24564244,0.0,-0.4758476,-0.7691373,9.776124,0.002796317,-0.0019973693,-0.0014647375,19.932627359076367,32.0,2257.8962271296105,763.4342430630546,564.6308990818155,219.13956991428228,246.13907306482415,162.45833142720954,178.01923983630684,175.47391844256697,131.21063302947633,144.09327351958277,10,-650,0,2,1,3,5,4,6,10,11,8,-33,-34,-40,-46,-78,-80,-83,-84,-86,-86,0
sleep,18261,7,35.56785188,129.24564244,0.0,-0.4758476,-0.7691373,9.776124,0.002530001,-0.0018642114,-0.0019973693,25.174871381144463,67.0,1921.761725921948,911.8400706904832,285.8285166676859,307.0055187387486,274.1288820908696,185.06092840790004,185.3021483277446,173.23460721865305,177.8411784661798,202.2051599089308,10,-650,0,2,1,3,5,4,6,10,11,8,-33,-34,-40,-46,-78,-80,-83,-84,-86,-86,0
sleep,18266,7,35.56785188,129.24564244,0.0,-0.4758476,-0.7691373,9.776124,0.002663159,-0.0023968432,-0.00079894776,20.678594962976447,34.0,2275.1000412742715,805.2326034228998,326.917542078779,235.94246493675524,152.78096677541214,125.38002628349584,204.91922361091412,123.06307748537918,119.524046951094,139.2045942367597,10,-650,0,2,1,3,5,4,6,10,11,8,-33,-34,-40,-46,-78,-80,-83,-84,-86,-86,0
sleep,18271,7,35.56785188,129.24564244,0.0,-0.4758476,-0.7691373,9.776124,0.00079894776,-0.002530001,0.010253162,18.02582855141188,28.0,1728.621528829497,567.3775054169633,372.399922788102,230.72957202010787,209.9098523069056,168.56927547114125,141.25968380438408,131.10776308824703,128.93525659262434,128.64528409539267,10,-650,0,2,1,3,5,4,6,10,11,8,-33,-34,-40,-46,-78,-80,-83,-84,-86,-86,0
sleep,18276,7,35.56785188,129.24564244,0.0,-0.4758476,-0.7691373,9.776124,0.0023968432,-0.002530001,-0.0038615807,21.46259578177688,37.0,1565.7001417237254,771.9216730076587,482.7096383727878,320.69245685983134,241.2541086416802,144.55909274890132,159.25978572334893,141.75930466248258,154.6434128451034,234.9052334323188,10,-650,0,2,1,3,5,4,6,10,11,8,-33,-34,-40,-46,-78,-80,-83,-84,-86,-86,0
sleep,18281,7,35.56785188,129.24564244,0.0,-0.4758476,-0.7691373,9.776124,0.0021305273,-0.0019973693,0.0041278964,19.923436589894955,35.0,1556.5021493750548,553.1733499355324,333.5250665277,217.18387968686088,236.386155155128,149.40467923277265,198.8820011490776,130.82548386165564,117.72550860459867,156.4322928464847,10,-650,0,2,1,3,5,4,6,10,11,8,-33,-34,-40,-46,-78,-80,-83,-84,-86,-86,0
sleep,18286,7,35.56785188,129.24564244,0.0,-0.4758476,-0.7691373,9.776124,0.0017310535,-0.0013315795,0.0017310535,24.56311373419816,71.0,427.1245676740817,595.9036363785068,360.24211963076294,190.30501302752188,241.43710728189063,228.34013793490223,238.38194440940933,211.5713773904939,282.3795329806995,452.5773445593,10,-650,0,2,1,3,5,4,6,10,11,8,-33,-34,-40,-46,-78,-80,-83,-84,-86,-86,0
sleep,18291,7,35.56785188,129.24564244,0.0,-0.4758476,-0.7691373,9.776124,0.0022636852,-0.0022636852,0.002530001,22.39147196814217,48.0,1239.8428991500173,463.7051317647503,227.92273975011645,264.99664420366145,226.4008055058852,171.5358730790933,128.8255512093899,155.33857998467747,166.6962666896761,288.29042206519324,10,-650,0,2,1,3,5,4,6,10,11,8,-33,-34,-40,-46,-78,-80,-83,-84,-86,-86,0
sleep,18296,7,35.56785188,129.24564244,0.0,-0.4758476,-0.7691373,9.776124,0.0018642114,-0.0022636852,-0.00013315796,17.917658146501964,27.0,1107.8448201452477,346.7518612783167,329.1266990364764,216.3355328001049,149.1700679493803,150.37540630047016,128.33265363441473,113.82704671320376,113.11398389544895,150.1973354957719,10,-650,0,2,1,3,5,4,6,10,11,8,-33,-34,-40,-46,-78,-80,-83,-84,-86,-86,0
sleep,18302,7,35.56785188,129.24564244,0.0,-0.4758476,-0.7691373,9.776124,0.0023968432,-0.0022636852,-0.0021305273,22.01156229917101,39.0,2266.690668577393,783.2927968766509,243.01581264902745,196.19053918887872,160.60587482753763,173.48535249459516,142.4367650673366,153.56195117210822,145.2479076404885,117.44196441140264,10,-650,0,2,1,3,5,4,6,10,11,8,-33,-34,-40,-46,-78,-80,-83,-84,-86,-86,0
sleep,18307,7,35.56785188,129.24564244,0.0,-0.4758476,-0.7691373,9.776124,0.0022636852,-0.0019973693,0.0017310535,21.355088882734044,37.0,1845.6795658998865,587.093402029973,409.3962232801216,261.7446035584449,205.4592007492486,207.6346558169285,206.0951299954785,213.1215179070378,193.22023825212585,230.3833680654344,10,-650,0,2,1,3,5,4,6,10,11,8,-33,-34,-40,-46,-78,-80,-83,-84,-86,-86,0
sleep,18312,7,35.56785188,129.24564244,0.0,-0.4758476,-0.7691373,9.776124,0.0023968432,-0.0018642114,-0.0018642114,19.26763486702377,36.0,1196.8811691657047,472.90078592001146,354.7322522878257,212.95475450202355,204.3652315090602,149.57930681599993,139.57235520407872,123.78141334674336,103.62982660009982,116.78063024577688,10,-650,0,2,1,3,5,4,6,10,11,8,-33,-34,-40,-46,-78,-80,-83,-84,-86,-86,0
sleep,18317,7,35.56785188,129.24564244,0.0,-0.4758476,-0.7691373,9.776124,0.0018642114,-0.0018642114,-0.00013315796,19.7758199771384,32.0,2480.552331365454,398.00094437774607,247.87601246904555,216.48870601371016,186.37912228670453,149.8827894825622,156.01419457334342,115.80193032130052,105.14591480415402,130.07753005998384,10,-650,0,2,1,3,5,4,6,10,11,8,-33,-34,-40,-46,-78,-80,-83,-84,-86,-86,0
sleep,18322,7,35.56785188,129.24564244,0.0,-0.4758476,-0.7691373,9.776124,0.002530001,-0.0022636852,-0.0014647375,19.47643745820492,32.0,2646.7856058384014,759.0910825153721,513.1569156115643,311.5110258829986,197.7624476152943,151.35627905696262,116.09430172600158,144.2268192335169,128.29356610823683,142.38516038948245,10,-650,0,2,1,3,5,4,6,10,11,8,-33,-34,-40,-46,-78,-80,-83,-84,-86,-86,0
